Packet number,Gyroscope X (deg/s),Gyroscope Y (deg/s),Gyroscope Z (deg/s),Accelerometer X (g),Accelerometer Y (g),Accelerometer Z (g),Magnetometer X (G),Magnetometer Y (G),Magnetometer Z (G)
0,-26.5625,21.4375,82.625,0.347168,-0.2827148,0.3432617,-0.02148438,-0.2539063,0.1777344
2,-9.25,12.1875,81.625,0.2460938,-0.5751953,0.3945313,-0.02246094,-0.2553711,0.1791992
3,13.4375,6.4375,82.875,0.137207,-0.8911133,0.5009766,-0.02392578,-0.2514648,0.1762695
5,61.125,-31.75,77.6875,-0.1230469,-1.300781,0.2373047,-0.02587891,-0.2529297,0.1777344
6,90.5,-50.75,71.8125,-0.2944336,-1.702637,0.737793,-0.02832031,-0.2529297,0.1806641
8,121.0625,-63.4375,45.5625,-0.3759766,-1.706543,0.6274414,-0.03417969,-0.2563477,0.1821289
9,137.1875,-95.125,17.375,-0.3876953,-2.189941,0.3120117,-0.03320313,-0.2587891,0.1850586
11,114.875,-85.3125,-8.125,-0.03369141,-1.550293,0.5366211,-0.03662109,-0.2626953,0.1879883
12,81.8125,-66.375,-35.875,0.4716797,-0.5322266,-0.01855469,-0.0390625,-0.2626953,0.1953125
14,4.0625,2.6875,-150,1.342773,1.105469,-0.2709961,-0.03662109,-0.2661133,0.1982422
15,-36.125,12.375,-266.1875,1.976563,2.240234,-0.9130859,-0.03564453,-0.2675781,0.1967773
17,-87.1875,73.5,-310.5625,2.13623,2.922852,-0.6293945,-0.02490234,-0.2709961,0.1938477
18,-84.125,145.25,-282.875,2.303223,3.016602,-0.487793,-0.01660156,-0.2700195,0.190918
20,-64.5625,175.375,-161.4375,2.291504,3.550781,-0.5664063,-0.01171875,-0.2700195,0.190918
21,-55.5,151.6875,-42.0625,2.077637,3.968262,-0.2314453,0,-0.2724609,0.1835938
23,-58.375,91,42.0625,1.71582,3.995605,0.1899414,0.002929688,-0.2724609,0.1850586
24,-51.25,24.125,93,1.276367,3.42627,0.4736328,0.00390625,-0.2709961,0.1806641
26,-58.0625,-18.375,129.375,1.016113,2.700684,0.4145508,0.001953125,-0.2675781,0.1777344
27,-91.8125,-35.6875,140.625,0.949707,1.85791,0.3432617,0,-0.2651367,0.1762695
29,-128.5625,-18.75,134.3125,0.9072266,0.9335938,0.434082,-0.00390625,-0.2626953,0.1762695
32,-138.1875,7.75,127.0625,0.3896484,-0.2788086,0.4458008,-0.009765625,-0.2529297,0.1733398
34,-114.6875,13.5625,154.3125,-0.2397461,-1.90918,0.4658203,-0.01074219,-0.2514648,0.1689453
35,-65.25,11,194.8125,-0.6557617,-2.935059,0.5249023,-0.01171875,-0.2490234,0.1660156
37,17.875,-28.0625,208.875,-0.59375,-4.171387,0.2016602,-0.01904297,-0.2480469,0.1660156
38,44.75,-5.6875,169.875,-0.690918,-3.336914,0.7255859,-0.02246094,-0.2456055,0.1660156
40,79.0625,-10.875,141.3125,-0.8544922,-3.063965,0.4853516,-0.02490234,-0.246582,0.1674805
41,83.875,-32.25,87.4375,-0.9477539,-2.303223,0.3041992,-0.02978516,-0.2441406,0.171875
43,61.5,-39.875,-3,-0.5351563,-1.289063,0.1030273,-0.03076172,-0.246582,0.1733398
44,46.75,-57.5625,-95.625,-0.3212891,-0.840332,0.02441406,-0.03320313,-0.2480469,0.1733398
46,58.8125,-74,-136.0625,-0.2553711,-0.8056641,0.004394531,-0.03076172,-0.2529297,0.1762695
47,58.8125,-58.5,-151.1875,0.3393555,-0.1191406,-0.5151367,-0.02832031,-0.2539063,0.1791992
49,57.75,-23.4375,-202.375,1.599121,1.452637,-1.070801,-0.02734375,-0.2539063,0.1791992
50,59.8125,36.75,-186,0.7553711,1.03125,-0.6254883,-0.02001953,-0.2602539,0.1835938
52,55.25,75,-200.9375,2.688477,3.079102,-0.503418,-0.015625,-0.2612305,0.1821289
53,76.75,85.0625,-79.375,2.688477,3.785156,-0.4204102,-0.01171875,-0.2636719,0.1835938
55,42.75,75.125,0.375,2.556152,4.241211,-0.1054688,-0.005859375,-0.2675781,0.1850586
56,-11.0625,50.25,18,2.354004,4.323242,0.2451172,-0.005859375,-0.2685547,0.1835938
58,-47.5625,20.625,20.0625,2,3.746094,0.4575195,-0.00390625,-0.2685547,0.1850586
59,-79.4375,-2.9375,32.3125,1.665527,2.887695,0.4067383,-0.005859375,-0.2661133,0.1806641
61,-109.75,-12.125,36.5625,1.369629,2.084473,0.3632813,-0.004882813,-0.2651367,0.1791992
62,-131.5,0,35.4375,1.264648,1.394043,0.4145508,-0.008300781,-0.2612305,0.1777344
64,-139.75,27.4375,49.125,1.117188,0.5864258,0.4106445,-0.007324219,-0.2578125,0.1733398
65,-135.4375,42.125,80.4375,0.6230469,-0.3413086,0.3710938,-0.009765625,-0.2553711,0.1704102
67,-106.25,32.25,138.5,-0.1933594,-1.597168,0.418457,-0.01074219,-0.2504883,0.1674805
68,-50.0625,17.4375,200.25,-1.122559,-2.903809,0.6430664,-0.01318359,-0.246582,0.1660156
70,72.0625,-24.875,223.3125,-1.025391,-4.280762,0.375,-0.015625,-0.246582,0.1630859
71,96.625,-19.6875,180.6875,-1.161621,-3.270508,0.7651367,-0.01904297,-0.246582,0.1660156
73,115.8125,-13.4375,119.1875,-0.8466797,-2.521484,0.6230469,-0.02246094,-0.246582,0.1674805
74,111.4375,-36.125,16.75,-0.7880859,-1.522949,0.359375,-0.02734375,-0.2490234,0.1704102
76,84.0625,-49.6875,-85.875,-0.5351563,-0.7119141,0.300293,-0.02734375,-0.2480469,0.171875
77,62.625,-44.4375,-143.75,-0.04541016,-0.07617188,0.1860352,-0.02587891,-0.2529297,0.1748047
79,59.4375,-22.75,-160.3125,0.6621094,0.9101563,-0.1445313,-0.02392578,-0.2553711,0.1777344
81,59.625,3.3125,-191.5,1.653809,2.150879,-0.5268555,-0.02246094,-0.2587891,0.1791992
83,-7.5625,26.1875,-145.875,2.956543,2.263672,-0.9013672,-0.01660156,-0.2626953,0.1791992
84,43.5625,44.5,-95.625,2.560059,3.17627,-0.2314453,-0.01171875,-0.2612305,0.1806641
86,36,29.8125,9.625,2.365234,3.441895,0.2133789,-0.008300781,-0.2636719,0.1821289
87,-1.6875,9.0625,61.3125,2.046387,3.453613,0.4970703,-0.009765625,-0.2636719,0.1821289
89,-40.8125,-14.375,56.6875,1.665527,3.137695,0.6074219,-0.008300781,-0.2636719,0.1821289
90,-70,-31.375,40.9375,1.307617,2.447266,0.5839844,-0.009765625,-0.2612305,0.1806641
92,-96.4375,-39.75,25.625,1.054688,1.643555,0.5366211,-0.01318359,-0.2602539,0.1806641
93,-117.5,-29.5625,14.625,0.9262695,0.921875,0.4736328,-0.01416016,-0.2563477,0.1762695
95,-124.75,-20.5,5.9375,0.7670898,0.2822266,0.3671875,-0.015625,-0.2553711,0.1748047
96,-110.0625,-18.3125,1,0.4868164,-0.2905273,0.3354492,-0.01660156,-0.2504883,0.171875
98,-82.5,-19.125,-0.25,0.315918,-0.6298828,0.359375,-0.01660156,-0.2490234,0.1704102
99,-51.375,-13.6875,-3.1875,0.269043,-0.8056641,0.418457,-0.015625,-0.2480469,0.1704102
101,-28.25,-7.3125,-5.6875,0.3701172,-0.7158203,0.4379883,-0.01904297,-0.2456055,0.1674805
102,-19.5,-2.875,-14.4375,0.4907227,-0.4350586,0.402832,-0.01757813,-0.2456055,0.1689453
104,-21.375,-2.5625,-34.5625,0.5727539,-0.1191406,0.331543,-0.01757813,-0.2456055,0.1674805
105,-25.25,-5.375,-63.125,0.6191406,0.09912109,0.300293,-0.01904297,-0.2441406,0.1674805
107,-30.5,-10,-88.4375,0.6386719,0.1689453,0.2963867,-0.015625,-0.2456055,0.1660156
108,-32.6875,-11.75,-99.9375,0.7045898,0.2158203,0.2963867,-0.01416016,-0.2441406,0.1660156
110,-30.75,-9.5625,-101.5,0.8095703,0.2978516,0.2451172,-0.01074219,-0.246582,0.1645508
111,-28.625,-2.8125,-102.4375,0.918457,0.4189453,0.2016602,-0.01074219,-0.2456055,0.1660156
113,-27.25,7.125,-109.0625,1.000488,0.543457,0.1777344,-0.009765625,-0.246582,0.1630859
114,-25.625,15.0625,-118.8125,1.023926,0.621582,0.1425781,-0.004882813,-0.2456055,0.1645508
116,-27.1875,19.125,-132.5625,0.9887695,0.652832,0.1464844,-0.00390625,-0.246582,0.1630859
117,-31,22,-149.0625,0.918457,0.6723633,0.1308594,0.0004882813,-0.2480469,0.1630859
119,-34.9375,23.9375,-160.4375,0.8681641,0.652832,0.1777344,0.00390625,-0.2480469,0.1630859
120,-36.625,23.8125,-162.9375,0.8056641,0.6411133,0.2094727,0.006347656,-0.2490234,0.1601563
122,-37.75,23.375,-157.8125,0.7709961,0.6411133,0.2568359,0.009765625,-0.2504883,0.1586914
123,-40.875,23.875,-150.4375,0.7514648,0.668457,0.2880859,0.01464844,-0.2504883,0.1572266
125,-43.375,25.0625,-143.4375,0.7436523,0.715332,0.3120117,0.01806641,-0.2514648,0.1572266
126,-44.9375,24.6875,-136.625,0.7397461,0.7543945,0.3276367,0.02197266,-0.2490234,0.1586914
128,-43.9375,24.5,-130.5625,0.7358398,0.7817383,0.3476563,0.02636719,-0.2480469,0.1542969
131,-41.6875,22.0625,-125.5,0.7084961,0.7856445,0.3554688,0.02636719,-0.2480469,0.1542969
133,-38,20.625,-122.5625,0.6967773,0.7856445,0.3710938,0.02978516,-0.2480469,0.152832
134,-36.75,18.875,-121.8125,0.6503906,0.7817383,0.3789063,0.03466797,-0.2490234,0.1513672
136,-62.25,-17.625,-143,0.4208984,1.054688,0.06738281,0.03808594,-0.2490234,0.1513672
137,-65.3125,-55.75,-172.25,0.5493164,0.7739258,0.4536133,0.03808594,-0.2480469,0.1464844
139,-56.125,-41.0625,-154.9375,0.5024414,0.652832,0.4892578,0.04199219,-0.2456055,0.1464844
140,-40.375,-18.125,-114.6875,0.4677734,0.637207,0.4619141,0.04052734,-0.2441406,0.1499023
142,-28,-7.0625,-85.375,0.5219727,0.6958008,0.3867188,0.04394531,-0.246582,0.1479492
143,-27.5,-8.875,-78.5625,0.5996094,0.7231445,0.3554688,0.04541016,-0.2441406,0.1479492
145,-26.875,-10.4375,-87.0625,0.6464844,0.7348633,0.3515625,0.04638672,-0.2441406,0.1464844
146,-26.5625,-11.5,-98.25,0.6464844,0.7348633,0.3276367,0.04882813,-0.2456055,0.1450195
148,-25.75,-7.75,-100.3125,0.6152344,0.6958008,0.3554688,0.05126953,-0.2441406,0.1450195
149,-22.5,-1.0625,-89.75,0.6035156,0.684082,0.4067383,0.05126953,-0.2441406,0.1435547
151,-18.4375,6.3125,-76.0625,0.6074219,0.7231445,0.390625,0.05371094,-0.2416992,0.1435547
152,-16.375,10.8125,-69.25,0.6113281,0.7543945,0.3632813,0.05712891,-0.2407227,0.140625
154,-17.125,13.0625,-69.5,0.6113281,0.7661133,0.3515625,0.05810547,-0.2416992,0.1420898
155,-19.1875,18.125,-68.5,0.5917969,0.746582,0.3945313,0.05810547,-0.2416992,0.1420898
157,-19.125,25.375,-62.9375,0.5336914,0.7583008,0.4145508,0.06054688,-0.2407227,0.1420898
158,-18.625,29.5625,-51.75,0.4985352,0.777832,0.4458008,0.06298828,-0.2392578,0.1420898
160,-16.5625,30.6875,-41.1875,0.4599609,0.8129883,0.4223633,0.06542969,-0.2382813,0.140625
161,-16.75,23.6875,-38.1875,0.4638672,0.8325195,0.418457,0.06787109,-0.2382813,0.140625
163,-19.75,16.375,-40.125,0.4750977,0.8208008,0.4067383,0.06640625,-0.2392578,0.140625
164,-25.5,9.625,-41.8125,0.4868164,0.7973633,0.4106445,0.06884766,-0.2392578,0.140625
166,-29.5625,6,-40.0625,0.5024414,0.7504883,0.4301758,0.06884766,-0.2382813,0.1391602
167,-32.25,4.25,-35.5625,0.5063477,0.7114258,0.4223633,0.06884766,-0.2368164,0.1376953
169,-33.75,4.6875,-32.125,0.5180664,0.6879883,0.418457,0.07128906,-0.234375,0.140625
170,-33.9375,5.0625,-27.0625,0.5297852,0.652832,0.4301758,0.07226563,-0.2358398,0.1376953
172,-32.5625,8.5,-20.75,0.5454102,0.6450195,0.4458008,0.07128906,-0.2358398,0.1362305
173,-32.875,14.5625,-17.875,0.5415039,0.6489258,0.4379883,0.07128906,-0.2333984,0.1362305
175,-33.5625,18.5625,-17.6875,0.4985352,0.668457,0.4418945,0.07373047,-0.2319336,0.1347656
176,-38.625,2.0625,-36.3125,0.3779297,0.7504883,0.4575195,0.07617188,-0.230957,0.1347656
178,-38.3125,-6.5,-66.875,0.4052734,0.7504883,0.4262695,0.07617188,-0.2319336,0.1347656
180,-35.875,-8.125,-71.9375,0.4716797,0.6762695,0.4458008,0.07470703,-0.2270508,0.1333008
182,-31.6875,-3.625,-46.25,0.5180664,0.6567383,0.4775391,0.07617188,-0.2270508,0.1318359
183,-30.0625,-0.75,-15.0625,0.5258789,0.7114258,0.4736328,0.07714844,-0.2260742,0.1318359
185,-31.5625,-2.25,1.875,0.4985352,0.777832,0.449707,0.07714844,-0.2260742,0.1303711
186,-37.0625,-2.375,7,0.4750977,0.7895508,0.4379883,0.07714844,-0.2260742,0.1303711
188,-41.75,-3.75,10.5625,0.4052734,0.809082,0.4619141,0.07714844,-0.2236328,0.1303711
189,-42.75,-6.875,8.625,0.3857422,0.8168945,0.4931641,0.07714844,-0.222168,0.1289063
191,-43.375,-15.5625,-5.8125,0.3662109,0.8208008,0.449707,0.078125,-0.222168,0.1303711
192,-44.625,-31.9375,-33.5,0.3896484,0.8051758,0.449707,0.07714844,-0.2211914,0.1289063
194,-40.0625,-36.9375,-66.0625,0.4599609,0.746582,0.4458008,0.07617188,-0.2172852,0.1274414
195,-38.75,-22.8125,-67.1875,0.5532227,0.6333008,0.4619141,0.07714844,-0.2172852,0.1274414
197,-31.6875,-0.125,-21.375,0.5727539,0.6020508,0.4931641,0.07714844,-0.2172852,0.1259766
198,-24.875,10.75,24,0.4750977,0.6723633,0.5170898,0.07617188,-0.2148438,0.1245117
200,-22.1875,8.375,30.8125,0.3276367,0.7739258,0.4814453,0.07714844,-0.2148438,0.1245117
201,-18.25,9.625,6.6875,0.3081055,0.7973633,0.4775391,0.07617188,-0.2148438,0.1259766
203,-12.1875,7.75,-37.5625,0.3662109,0.7543945,0.4458008,0.07714844,-0.2133789,0.1245117
204,-12.875,5.8125,-66.8125,0.3974609,0.6645508,0.4658203,0.07714844,-0.2124023,0.1245117
206,-14.4375,6.3125,-72,0.4169922,0.6333008,0.4931641,0.07714844,-0.2133789,0.1259766
207,-14.25,6.875,-66,0.4169922,0.652832,0.4853516,0.08056641,-0.2124023,0.121582
209,-13.375,11.1875,-64.8125,0.4404297,0.7036133,0.4814453,0.07958984,-0.2109375,0.1230469
210,-16.25,18.8125,-67.5,0.4326172,0.7075195,0.4658203,0.08203125,-0.2075195,0.1230469
212,-14.375,27.3125,-53.3125,0.4169922,0.6762695,0.5087891,0.08398438,-0.2099609,0.1259766
213,-8,32.6875,-28.6875,0.4013672,0.652832,0.5288086,0.08398438,-0.2099609,0.121582
215,-3.375,32,-1.5625,0.3779297,0.6762695,0.5327148,0.08642578,-0.2099609,0.1230469
216,0.0625,26.8125,17,0.3549805,0.699707,0.5366211,0.08886719,-0.2099609,0.1245117
218,3.5625,20.4375,27.1875,0.3432617,0.6801758,0.5249023,0.08544922,-0.2099609,0.1230469
219,5.5625,14.8125,26.1875,0.331543,0.699707,0.4892578,0.08886719,-0.2099609,0.1230469
221,7.1875,10.5,14.9375,0.331543,0.730957,0.5249023,0.09033203,-0.2099609,0.1245117
222,2.4375,10,-0.375,0.3237305,0.7895508,0.5366211,0.09033203,-0.2099609,0.121582
224,-7.75,5.6875,-8.375,0.300293,0.809082,0.5327148,0.09130859,-0.2109375,0.1245117
225,-7.6875,-4.1875,-4.4375,0.2924805,0.8051758,0.5288086,0.09033203,-0.2099609,0.1259766
227,-0.875,-10.6875,9.3125,0.2963867,0.7739258,0.5600586,0.08789063,-0.2084961,0.1230469
230,6.9375,-6.375,28.125,0.3198242,0.7387695,0.5522461,0.08886719,-0.2084961,0.1230469
232,12.125,-5.0625,37.1875,0.3354492,0.746582,0.5126953,0.08642578,-0.2099609,0.1230469
233,15.375,-8.625,33.125,0.347168,0.7543945,0.5048828,0.08789063,-0.2099609,0.1259766
235,16.8125,-14.3125,26.125,0.3432617,0.746582,0.4970703,0.08642578,-0.2109375,0.1245117
236,22.125,-18.1875,25.6875,0.3510742,0.7231445,0.5126953,0.08642578,-0.2124023,0.1259766
238,28.9375,-19.25,30.625,0.3779297,0.7348633,0.5048828,0.08544922,-0.2133789,0.1259766
239,34.875,-21.5,34.25,0.4091797,0.7387695,0.4853516,0.08544922,-0.2148438,0.1259766
241,39.875,-29.1875,38.6875,0.4208984,0.7583008,0.449707,0.08300781,-0.2158203,0.1259766
242,42.1875,-37.1875,40.875,0.4091797,0.7739258,0.449707,0.08203125,-0.2148438,0.1259766
244,43.6875,-45.0625,40.8125,0.4248047,0.7856445,0.4418945,0.078125,-0.2158203,0.1274414
245,44.3125,-55.0625,39.875,0.4443359,0.8051758,0.434082,0.07617188,-0.2197266,0.1274414
247,44.125,-65.3125,37.25,0.4638672,0.7973633,0.4106445,0.07617188,-0.2211914,0.1289063
248,43.625,-75.6875,32.25,0.5063477,0.809082,0.3945313,0.07226563,-0.2211914,0.1274414
250,37.125,-77.9375,24.0625,0.5493164,0.8286133,0.4067383,0.06884766,-0.2236328,0.1303711
251,29.375,-76.5625,23.4375,0.5493164,0.8476563,0.4619141,0.06787109,-0.2236328,0.1318359
253,27.75,-67.5,25.5625,0.5454102,0.8325195,0.4379883,0.06396484,-0.2236328,0.1318359
254,24.9375,-57.9375,19.5625,0.5532227,0.84375,0.3945313,0.06054688,-0.2246094,0.1303711
256,12.625,-53.875,4.25,0.5180664,0.859375,0.3789063,0.06054688,-0.2260742,0.1318359
257,3.0625,-47.0625,-9.75,0.5102539,0.859375,0.434082,0.05957031,-0.2246094,0.1318359
259,-2.75,-35.625,-21.4375,0.4790039,0.8208008,0.434082,0.05712891,-0.2236328,0.1333008
260,-9.5,-28.125,-23.1875,0.4521484,0.793457,0.4536133,0.05712891,-0.2236328,0.1318359
262,-11.75,-23.375,-22.375,0.4560547,0.762207,0.449707,0.05712891,-0.2260742,0.1303711
263,-23.1875,-1.25,-29.25,0.5571289,0.8325195,0.5288086,0.0546875,-0.2260742,0.1333008
265,-39.125,37.25,-58.1875,0.4946289,0.7817383,0.4301758,0.05712891,-0.2236328,0.1303711
266,-45.125,40.1875,-69.875,0.4404297,0.793457,0.4379883,0.05957031,-0.222168,0.1303711
268,-45.3125,28.9375,-61.0625,0.4052734,0.8129883,0.4418945,0.06054688,-0.2211914,0.1274414
269,-44.25,20.25,-50.5,0.4208984,0.8476563,0.4736328,0.06396484,-0.2211914,0.1289063
271,-55.3125,23.25,-51,0.4443359,0.8710938,0.449707,0.06298828,-0.2211914,0.1274414
272,-86.125,46.3125,-57.375,0.5532227,0.8168945,0.6274414,0.06640625,-0.2158203,0.1274414
274,-109.6875,69.5625,-72.6875,0.4482422,0.9101563,0.4575195,0.06787109,-0.2148438,0.1274414
275,-118.125,68.75,-92.375,0.3896484,0.921875,0.4658203,0.07128906,-0.2124023,0.1245117
277,-121.125,65.625,-107.6875,0.3740234,0.8945313,0.4736328,0.07617188,-0.2075195,0.121582
279,-118.25,48,-117.625,0.347168,0.8398438,0.4697266,0.078125,-0.2036133,0.121582
281,-119,29.1875,-124.375,0.3779297,0.7895508,0.4892578,0.08056641,-0.2026367,0.1201172
282,-128.8125,23.875,-134.75,0.4326172,0.7817383,0.4931641,0.08544922,-0.1962891,0.1186523
284,-146.0625,27.0625,-146.1875,0.4443359,0.7270508,0.4931641,0.08642578,-0.1928711,0.1157227
285,-161.3125,27.625,-150.75,0.3857422,0.684082,0.5170898,0.09033203,-0.1889648,0.1171875
287,-165.1875,16.3125,-144.8125,0.315918,0.652832,0.5327148,0.09228516,-0.1806641,0.1098633
288,-156.125,2.4375,-123.75,0.2226563,0.5864258,0.6074219,0.09375,-0.1757813,0.1098633
290,-145.125,0.625,-99.9375,0.203125,0.5786133,0.6826172,0.09619141,-0.1733398,0.1083984
291,-146.0625,3.5,-89.375,0.2226563,0.6801758,0.7416992,0.09619141,-0.1635742,0.1054688
293,-156.4375,8.25,-90.625,0.1835938,0.730957,0.7177734,0.09716797,-0.1621094,0.1069336
294,-160.625,2.25,-92.1875,0.137207,0.7192383,0.7099609,0.09716797,-0.1572266,0.1069336
296,-161.375,4.25,-103.9375,0.1293945,0.7856445,0.7768555,0.09814453,-0.1489258,0.1040039
297,-160.5625,1.625,-119.0625,0.1137695,0.7543945,0.7333984,0.09814453,-0.144043,0.1069336
299,-160.5625,-3.125,-135.0625,0.1254883,0.730957,0.7138672,0.1005859,-0.1401367,0.1025391
300,-160.1875,-8.125,-147,0.1254883,0.6801758,0.7573242,0.1005859,-0.1328125,0.1040039
302,-164.6875,-7.875,-155.25,0.1757813,0.6879883,0.7885742,0.1005859,-0.1254883,0.1040039
303,-176.5625,-2.125,-163.375,0.2148438,0.6801758,0.7768555,0.1020508,-0.1220703,0.1025391
305,-189.0625,6.3125,-172.5,0.25,0.6762695,0.7885742,0.1005859,-0.1123047,0.1025391
306,-196.25,18.5,-179.875,0.2612305,0.6723633,0.784668,0.1005859,-0.105957,0.1010742
308,-203.5,34.1875,-192.8125,0.2807617,0.6645508,0.7929688,0.1005859,-0.1010742,0.1025391
309,-205.1875,52.375,-201.25,0.2573242,0.5708008,0.7929688,0.1030273,-0.08886719,0.1010742
311,-194.9375,67.125,-181.75,0.234375,0.5317383,0.796875,0.1054688,-0.08398438,0.1040039
312,-170.625,69.0625,-185.0625,0.2226563,0.4111328,0.9072266,0.1064453,-0.07763672,0.1054688
314,-107.4375,89,-206.4375,0.4052734,0.4775391,1.206543,0.1064453,-0.06933594,0.1054688
315,-67.5625,107.25,-223.25,0.3623047,0.4228516,0.9423828,0.1088867,-0.06445313,0.1069336
317,-80.375,101.25,-211.375,0.203125,0.3759766,0.6904297,0.1137695,-0.06298828,0.1069336
318,-110.5,88.625,-189,0.09814453,0.3251953,0.7177734,0.1137695,-0.05566406,0.1083984
320,-128.3125,81.5,-170.1875,-0.01025391,0.3173828,0.796875,0.1147461,-0.05322266,0.1098633
321,-143.6875,65.4375,-161,-0.1230469,0.3212891,0.769043,0.1162109,-0.05078125,0.1113281
323,-147.25,54.5,-140.0625,-0.2280273,0.3056641,0.8164063,0.1181641,-0.04003906,0.112793
324,-134,51.1875,-166.75,-0.5429688,0.5317383,0.9228516,0.1171875,-0.03759766,0.1113281
326,-142.3125,34,-159.375,-0.5429688,0.2861328,0.9033203,0.1162109,-0.03125,0.1171875
329,-141.875,7.125,-125.4375,-0.512207,0.1420898,0.9462891,0.1162109,-0.02539063,0.1186523
331,-131.875,-6.125,-76.6875,-0.4926758,0.07958984,1.123535,0.1162109,-0.01806641,0.1201172
332,-97.5,-1.25,-43.5,-0.3759766,0.1845703,1.293457,0.1137695,-0.01660156,0.121582
334,-50.25,10,-31.0625,-0.3642578,0.3251953,1.352539,0.1137695,-0.01171875,0.1245117
335,-9.3125,22.875,-27.25,-0.4262695,0.4306641,1.261719,0.1162109,-0.009277344,0.1230469
337,21.5625,25.6875,-19.875,-0.4418945,0.4931641,1.068359,0.1147461,-0.01171875,0.1230469
338,29.9375,20.9375,-6.8125,-0.3994141,0.5708008,0.9345703,0.1147461,-0.01318359,0.121582
340,19.5,16.5,-3.125,-0.3369141,0.6606445,0.855957,0.1162109,-0.01074219,0.1230469
341,1.5,4.875,-6.625,-0.2905273,0.6879883,0.7929688,0.1162109,-0.01318359,0.1245117
343,-24.5625,-9.6875,-13.5625,-0.2553711,0.605957,0.7768555,0.1162109,-0.01171875,0.1230469
344,-40.9375,-19.4375,-33.4375,-0.3134766,0.5004883,0.8676758,0.1162109,-0.01171875,0.121582
346,-41.3125,-27,-55,-0.4033203,0.3798828,0.8911133,0.1147461,-0.009277344,0.1245117
347,-39.625,-37.4375,-68.125,-0.4418945,0.3056641,0.9111328,0.1123047,-0.006835938,0.1245117
349,-21.125,-67.4375,-93.1875,-0.5820313,0.3720703,0.7768555,0.1103516,-0.005859375,0.1245117
350,-25.125,-109.3125,-123.9375,-0.7182617,0.4189453,0.6469727,0.1079102,-0.005859375,0.1245117
352,-48.9375,-158.1875,-146.6875,-0.8115234,0.3955078,0.5249023,0.1005859,-0.001953125,0.1245117
353,-96,-174.625,-93.8125,0.5297852,-0.9262695,1.758301,0.09375,-0.0009765625,0.1245117
355,-10.25,2.4375,-57.0625,0.6699219,0.7739258,1.080566,0.09228516,0.002441406,0.1259766
356,-70.9375,-72.75,-106.25,-0.05322266,0.2861328,0.01220703,0.08789063,0.002441406,0.1259766
358,-135.375,-57.375,-66.6875,-0.05712891,-0.05273438,1.096191,0.08398438,0.007324219,0.1259766
359,-94.4375,-29.4375,-89.25,0.121582,0.2861328,0.9702148,0.08300781,0.008300781,0.1274414
361,-92.375,-10.6875,-100.5,0.09814453,0.2705078,0.9033203,0.078125,0.01464844,0.1303711
362,-90.625,-3.0625,-97.5,-0.002441406,0.1108398,0.887207,0.07617188,0.01708984,0.1333008
364,-85.625,-4.1875,-79.3125,-0.1035156,0.04443359,0.9072266,0.07714844,0.01953125,0.1333008
365,-71.8125,-8.625,-62.3125,-0.1269531,0.07568359,0.8950195,0.07373047,0.02197266,0.1333008
367,-66.5625,-14.875,-57.3125,-0.1230469,0.1655273,0.9111328,0.07373047,0.02441406,0.1362305
368,-73,-20.625,-65.6875,-0.1503906,0.2509766,0.9306641,0.07226563,0.02685547,0.1362305
370,-79.625,-25.9375,-80.75,-0.1621094,0.2783203,0.9780273,0.06982422,0.03076172,0.1391602
371,-79.75,-32.875,-89.875,-0.1699219,0.2353516,0.9936523,0.06787109,0.03076172,0.140625
373,-82.5625,-37.625,-94,-0.1386719,0.2001953,0.9624023,0.06542969,0.03173828,0.140625
374,-96.625,-44.3125,-94.375,-0.07666016,0.1616211,0.9345703,0.06201172,0.03662109,0.140625
376,-141.9375,-56.25,-80.75,0.0009765625,0.09521484,0.9111328,0.05957031,0.0390625,0.1450195
378,-108.875,-49.6875,-85.5625,-0.04541016,0.08740234,1.009277,0.05615234,0.04052734,0.1464844
380,-98.375,-40.5,-78.8125,-0.07275391,0.06787109,0.9819336,0.05126953,0.04394531,0.1499023
381,-98.625,-33.4375,-72.75,-0.09570313,0.02880859,1.037109,0.05126953,0.04638672,0.1513672
383,-91.8125,-27.375,-70.9375,-0.09960938,-0.01367188,1.056641,0.04882813,0.04882813,0.1542969
384,-86.5625,-20.8125,-68.5625,-0.09179688,-0.1152344,0.9936523,0.04541016,0.05126953,0.1557617
386,-75.6875,-17.3125,-62.9375,-0.03759766,-0.2006836,0.9423828,0.04394531,0.05273438,0.1586914
387,-61.75,-17.5,-57.625,-0.006347656,-0.1660156,0.9306641,0.04199219,0.05517578,0.1586914
389,-59.4375,-13.0625,-58.75,-0.03759766,-0.04101563,1.009277,0.03955078,0.05761719,0.1630859
390,-63.25,-3.8125,-71.375,-0.04541016,0.06005859,1.056641,0.03808594,0.05761719,0.1630859
392,-67.5,0.75,-87.6875,-0.04150391,0.009277344,1.001465,0.03710938,0.06005859,0.1645508
393,-61.9375,0,-88.125,-0.09570313,-0.1308594,1.025391,0.03466797,0.06103516,0.1660156
395,-59.625,-11.875,-76.25,-0.1308594,-0.1811523,0.9936523,0.03125,0.0625,0.1674805
396,-56,-24.25,-66.5,-0.08789063,-0.1542969,0.9741211,0.03125,0.06494141,0.1689453
398,-57.9375,-31.75,-61.1875,-0.02197266,-0.1772461,0.9501953,0.02539063,0.06494141,0.171875
399,-54.6875,-32.75,-42.6875,0.0009765625,-0.2905273,0.9306641,0.02392578,0.06738281,0.1704102
401,-45.875,-32.3125,-26.875,0.03173828,-0.2241211,0.9345703,0.02392578,0.06591797,0.1733398
402,-42.75,-31,-25.9375,0.04345703,-0.1308594,0.9462891,0.02294922,0.06835938,0.1748047
404,-45.0625,-29.4375,-30.0625,-0.002441406,-0.1230469,1.013184,0.02294922,0.06982422,0.1762695
405,-42.1875,-26.375,-33.8125,-0.05322266,-0.1464844,1.056641,0.02050781,0.06835938,0.1777344
407,-37.375,-24.75,-34.5625,-0.06884766,-0.1967773,1.048828,0.01806641,0.07080078,0.1791992
408,-31.0625,-25.6875,-31.5,-0.06103516,-0.2006836,1.033203,0.01708984,0.07080078,0.1806641
410,-26.9375,-24.25,-30.25,-0.05322266,-0.1425781,1.013184,0.01464844,0.07080078,0.1791992
411,-26.375,-19.875,-39.5625,-0.002441406,-0.09960938,1.029297,0.01367188,0.07324219,0.1806641
413,-29.9375,-16.1875,-42.5,0.02783203,-0.1386719,1.017578,0.01367188,0.07324219,0.1806641
414,-24.0625,-15,-33.5625,0.01660156,-0.2241211,1.005371,0.01220703,0.07324219,0.1821289
416,-21.125,-13.25,-22.5,-0.002441406,-0.2280273,1.052734,0.009765625,0.07470703,0.1835938
417,-22.125,-13.875,-21.8125,-0.02197266,-0.09960938,1.048828,0.008789063,0.07568359,0.1835938
419,-23.3125,-14.0625,-31,-0.02197266,-0.1074219,1.041016,0.009765625,0.07470703,0.1835938
420,-29.8125,-14.625,-38.0625,0.008789063,-0.1308594,1.017578,0.0078125,0.07568359,0.1865234
422,-27.75,-13.5625,-39.6875,-0.01025391,-0.1733398,1.021484,0.0078125,0.07470703,0.1879883
423,-29.6875,-18.5625,-35.875,0.04736328,-0.1772461,0.9624023,0.005371094,0.07470703,0.1865234
425,-27.25,-17.375,-33.75,0.02441406,-0.2006836,0.9819336,0.00390625,0.07568359,0.1865234
428,-24.1875,-15,-35.25,0.03564453,-0.2397461,1.029297,0.0004882813,0.07568359,0.1894531
430,-21.125,-14.25,-30.3125,0.02783203,-0.2592773,0.9897461,0.001953125,0.07470703,0.190918
431,-14.0625,-10.9375,-24.25,0.01269531,-0.2475586,1.009277,0,0.078125,0.1894531
433,-11.5,-7.5,-27.0625,0.03173828,-0.1850586,1.013184,0,0.07568359,0.1894531
434,-9.5625,-4.875,-30.25,0.01269531,-0.2280273,1.025391,0,0.07568359,0.190918
436,-5.6875,-4.6875,-23.3125,0.03564453,-0.2553711,1.021484,-0.001464844,0.07568359,0.190918
437,0.1875,-0.375,-20.25,0.01660156,-0.2163086,1.037109,-0.002441406,0.07568359,0.190918
439,1.6875,5.6875,-28.875,-0.01025391,-0.1660156,1.068359,-0.004882813,0.07568359,0.190918
440,3.9375,8.9375,-37.125,-0.03759766,-0.1464844,1.025391,-0.002441406,0.07470703,0.1894531
442,2.625,11.5625,-46.1875,-0.04541016,-0.1191406,1.044922,-0.005859375,0.07568359,0.1894531
443,0.4375,13.0625,-58.5625,-0.05322266,-0.06445313,1.096191,-0.004882813,0.07470703,0.190918
445,-5.9375,13.9375,-72.4375,-0.04541016,-0.1152344,1.064453,-0.005859375,0.07470703,0.190918
446,-7.9375,19.0625,-85.6875,-0.03369141,-0.06835938,1.064453,-0.008300781,0.07324219,0.190918
448,-13.9375,25.1875,-105.75,-0.01025391,-0.05664063,1.068359,-0.008300781,0.07324219,0.190918
449,-20.25,23.1875,-106.9375,0.04736328,-0.2202148,0.9975586,-0.01318359,0.07324219,0.190918
451,-11.9375,20.875,-92.1875,0.06689453,-0.3334961,0.9741211,-0.01416016,0.07080078,0.190918
452,-7.4375,20,-83.25,0.07861328,-0.2670898,0.9858398,-0.015625,0.07226563,0.190918
454,-4.1875,18.1875,-76.8125,0.02783203,-0.2788086,0.9702148,-0.01660156,0.06982422,0.190918
455,-0.625,12.8125,-66.0625,0.02441406,-0.2905273,0.9663086,-0.01904297,0.07080078,0.190918
457,2.8125,6.5,-54.0625,0.05126953,-0.2553711,0.9462891,-0.02001953,0.06982422,0.1894531
458,2.6875,-1.125,-29,0.171875,-0.2553711,0.855957,-0.02001953,0.06982422,0.1923828
460,8.9375,-1.375,-7.375,0.1523438,-0.3334961,0.9267578,-0.02246094,0.06835938,0.1894531
461,15.875,1.6875,-4.4375,0.008789063,-0.2319336,1.005371,-0.02148438,0.06835938,0.1894531
463,16.1875,-3.25,-5.1875,-0.05322266,-0.1660156,1.025391,-0.02246094,0.06591797,0.1879883
464,12.0625,-7.1875,-6,0.02783203,-0.1464844,0.9897461,-0.02148438,0.06738281,0.1879883
466,11.375,-7.0625,-9.3125,0.06298828,-0.1425781,0.9858398,-0.02246094,0.06738281,0.1894531
467,11.625,-5.5625,-19.875,0.0009765625,-0.1347656,1.001465,-0.02148438,0.06494141,0.1894531
469,12.25,-5.6875,-29.9375,-0.02978516,-0.1503906,1.009277,-0.02392578,0.06494141,0.1879883
470,15.6875,-4.75,-38.1875,0.008789063,-0.1967773,0.9975586,-0.02246094,0.06494141,0.1879883
472,17.75,-3.3125,-38.25,0.08251953,-0.1928711,0.9384766,-0.02490234,0.06494141,0.1879883
473,19.25,1.5,-26.625,0.1640625,-0.1660156,0.9267578,-0.02587891,0.06347656,0.1879883
475,19,10.1875,-20.4375,0.1796875,-0.09570313,0.9228516,-0.02587891,0.0625,0.1879883
477,12.9375,12.375,-19.125,0.15625,-0.04101563,0.8676758,-0.02587891,0.06347656,0.1850586
479,4,11.5625,-16.5,0.1523438,-0.009765625,0.8676758,-0.02734375,0.0625,0.1865234
480,-6.125,10.125,-14.0625,0.1835938,0.01318359,0.887207,-0.02587891,0.06103516,0.1879883
482,-13.4375,12.125,-9.4375,0.2070313,-0.05273438,0.8637695,-0.02587891,0.0625,0.1865234
483,-16.625,14,-3.5625,0.137207,-0.1191406,0.8911133,-0.02587891,0.0625,0.1865234
485,-14.9375,13.3125,-2.625,0.06298828,-0.1733398,0.9345703,-0.02734375,0.06103516,0.1865234
486,-10.5,12.3125,-6.625,0.008789063,-0.2280273,0.9384766,-0.02734375,0.0625,0.1865234
488,-4.375,8.5625,-3.875,0.03173828,-0.2866211,0.9462891,-0.02587891,0.06347656,0.1865234
489,4.0625,9.1875,0,0.05517578,-0.2944336,0.9423828,-0.02587891,0.0625,0.1894531
491,8.75,8.6875,4.625,0.05126953,-0.2280273,0.9462891,-0.02490234,0.06103516,0.1879883
492,10.5,9.9375,10.5,0.09814453,-0.1582031,0.9111328,-0.02587891,0.06103516,0.1865234
494,6.9375,12.25,15.8125,0.1523438,-0.08007813,0.9111328,-0.02392578,0.0625,0.1865234
495,3.625,17.625,21.8125,0.137207,-0.07617188,0.9072266,-0.02490234,0.0625,0.1850586
497,-0.1875,21.4375,24.5,0.105957,-0.08398438,0.9150391,-0.02392578,0.0625,0.1865234
498,-2.375,24.5625,26.6875,0.06298828,-0.1035156,0.9624023,-0.02246094,0.06103516,0.1865234
500,-3.6875,29.0625,24.5,0.0009765625,-0.08789063,1.025391,-0.01904297,0.06347656,0.1850586
501,-8.875,30.375,13,-0.09570313,-0.06445313,1.072754,-0.02001953,0.06494141,0.1850586
503,-16,29.0625,0.4375,-0.1621094,-0.1035156,1.123535,-0.01904297,0.0625,0.1850586
504,-23,27.1875,-6.4375,-0.2084961,-0.1269531,1.190918,-0.01757813,0.0625,0.1850586
506,-33.5625,27.5,-15.1875,-0.2983398,-0.1347656,1.320801,-0.01660156,0.06494141,0.1850586
507,-44.8125,25.6875,-24,-0.4301758,-0.1967773,1.442871,-0.01660156,0.06494141,0.1850586
509,-55.5625,19.9375,-34.0625,-0.6015625,-0.2944336,1.604492,-0.01757813,0.06591797,0.1865234
510,-57.9375,7,-40.75,-0.7958984,-0.5244141,1.762207,-0.01757813,0.06591797,0.1894531
512,-48.5,-13.125,-40.9375,-0.9086914,-0.8330078,1.876465,-0.01904297,0.06591797,0.1879883
513,-22.5625,-36.375,-36.1875,-1.009766,-1.109863,1.963379,-0.02148438,0.06738281,0.1894531
515,11.9375,-63.5,-27.5,-1.048828,-1.257813,1.98291,-0.02246094,0.06591797,0.1894531
516,52.375,-89.6875,-9.4375,-0.9633789,-1.265625,1.923828,-0.02392578,0.06591797,0.1923828
518,90.0625,-111.6875,8.875,-0.8349609,-1.125488,1.833008,-0.02734375,0.06347656,0.190918
519,113.875,-135.75,25.6875,-0.6557617,-0.8442383,1.647949,-0.02734375,0.06494141,0.1894531
521,126.8125,-152.375,33,-0.4379883,-0.5205078,1.442871,-0.02978516,0.0625,0.190918
522,129.125,-164.4375,37.25,-0.2319336,-0.2397461,1.261719,-0.03564453,0.06005859,0.1894531
524,124,-168.3125,37.8125,-0.02197266,-0.005859375,1.084473,-0.03662109,0.05761719,0.1894531
527,116.125,-168.3125,36.8125,0.1679688,0.1420898,0.8989258,-0.0390625,0.05517578,0.1879883
529,108.0625,-163,34.75,0.2768555,0.1923828,0.7729492,-0.04492188,0.05371094,0.1879883
530,105.3125,-154,25.9375,0.347168,0.2314453,0.6508789,-0.04492188,0.05273438,0.1879883
532,99.0625,-148,23.1875,0.4521484,0.2783203,0.5048828,-0.04833984,0.05126953,0.1879883
533,94,-138,22.6875,0.6035156,0.3447266,0.375,-0.05322266,0.04882813,0.1894531
535,90.3125,-121.875,20,0.7045898,0.3642578,0.2802734,-0.05419922,0.04785156,0.1879883
536,84.1875,-107.125,22.0625,0.8095703,0.3994141,0.1777344,-0.05664063,0.04785156,0.1894531
538,78.9375,-91.0625,27.5625,0.8994141,0.3798828,0.1108398,-0.06152344,0.04394531,0.1894531
539,73.9375,-73.75,36.375,1.000488,0.3876953,0.03222656,-0.06005859,0.04150391,0.1879883
541,72.5,-54.5625,46.625,1.082031,0.3134766,-0.04248047,-0.06152344,0.04296875,0.1879883
542,74.375,-36.375,59.6875,1.125,0.2587891,-0.07763672,-0.0625,0.04296875,0.1865234
544,79.9375,-16.625,71.75,1.140137,0.2470703,-0.1328125,-0.06005859,0.04150391,0.1879883
545,78.3125,0.75,81.5625,1.171387,0.3369141,-0.1723633,-0.06152344,0.04296875,0.1879883
547,75.0625,22.5,85.375,1.136719,0.3798828,-0.1762695,-0.05908203,0.04052734,0.1865234
548,65.9375,43.25,82.5625,1.082031,0.4462891,-0.1484375,-0.05664063,0.0390625,0.1835938
550,54.5625,62.5625,76.0625,0.9692383,0.4423828,-0.109375,-0.05322266,0.03808594,0.1791992
551,41.5,78.625,66.75,0.8916016,0.4072266,-0.05029297,-0.04833984,0.0390625,0.1762695
553,28.625,93.3125,58.1875,0.8095703,0.3486328,0.01220703,-0.04833984,0.04052734,0.1762695
554,17.8125,108.5625,53.3125,0.7905273,0.3095703,0.05566406,-0.04589844,0.0390625,0.1762695
556,8.0625,125.4375,53.3125,0.7280273,0.2353516,0.1147461,-0.03808594,0.0390625,0.1733398
557,2.4375,142.4375,53.125,0.5957031,0.1264648,0.1860352,-0.03564453,0.0390625,0.1704102
559,-2.0625,153.0625,49.1875,0.4208984,0.06787109,0.2841797,-0.03173828,0.04052734,0.171875
560,-5.8125,161.75,41.9375,0.2265625,0.03271484,0.4223633,-0.02587891,0.04150391,0.1645508
562,-11.5,166.75,30.4375,0.03173828,0.02880859,0.5878906,-0.02246094,0.04296875,0.1645508
563,-23.625,171.1875,17.125,-0.1074219,0.09912109,0.7651367,-0.01904297,0.04296875,0.1616211
565,-44.5625,174.875,1.25,-0.2866211,0.2119141,1.009277,-0.009765625,0.04541016,0.1616211
566,-73.3125,178.5,-27.1875,-0.5703125,0.2822266,1.316895,-0.007324219,0.04394531,0.1616211
568,-111.625,170.125,-56.375,-0.9438477,0.2119141,1.628418,-0.002441406,0.04394531,0.1616211
569,-145.0625,152.25,-77.9375,-1.254883,-0.09570313,1.935547,0.001953125,0.04882813,0.1616211
571,-162.9375,124.8125,-89.75,-1.464844,-0.6611328,2.179688,0.001953125,0.05126953,0.1630859
572,-152.8125,91.4375,-90.3125,-1.628418,-1.164551,2.341309,0.002929688,0.05273438,0.1660156
574,-128.625,48.25,-77.875,-1.814941,-1.737793,2.491211,0.001953125,0.05761719,0.1704102
576,-80.875,-1.375,-60.125,-1.682617,-1.749512,2.443848,0.00390625,0.05761719,0.1689453
578,-30.6875,-45.1875,-34.6875,-1.383301,-1.628418,2.369141,0.001953125,0.05859375,0.1704102
579,3.0625,-70.875,-19.625,-1.200195,-1.741699,2.116699,-0.001464844,0.05761719,0.1733398
581,38.9375,-97.4375,-10.5625,-0.8271484,-1.012207,1.899902,-0.00390625,0.05615234,0.1733398
582,59.875,-115.8125,-4.1875,-0.5859375,-0.7587891,1.691406,-0.00390625,0.05615234,0.1733398
584,67.25,-128.5625,-4.4375,-0.2905273,-0.3959961,1.462891,-0.009765625,0.05517578,0.171875
585,66.5625,-131.0625,-8.125,-0.03369141,-0.06835938,1.253906,-0.01074219,0.05273438,0.171875
587,58.5625,-129.875,-17.125,0.2070313,0.1108398,1.017578,-0.01416016,0.05273438,0.1733398
588,47.625,-124.4375,-30.3125,0.4404297,0.2548828,0.7885742,-0.02001953,0.04882813,0.1748047
590,36.625,-116.25,-37,0.6660156,0.3095703,0.5678711,-0.02148438,0.04785156,0.1733398
591,35.3125,-99.375,-39.4375,0.9262695,0.3056641,0.375,-0.02587891,0.04785156,0.1748047
593,38.6875,-78.0625,-36.1875,1.125,0.3291016,0.1938477,-0.02832031,0.04541016,0.1748047
594,45.375,-54.5,-29.375,1.19873,0.3837891,0.09130859,-0.03076172,0.04638672,0.1748047
596,52,-30.8125,-16.8125,1.288086,0.4462891,-0.01464844,-0.03417969,0.04296875,0.1762695
597,59.9375,-7.125,-5.75,1.327148,0.4580078,-0.09326172,-0.03320313,0.04150391,0.171875
599,66.8125,16.3125,7.75,1.350586,0.5004883,-0.1484375,-0.03417969,0.04296875,0.1733398
600,71.4375,40,24.0625,1.323242,0.543457,-0.1918945,-0.03320313,0.03808594,0.1704102
602,69.8125,61.8125,32.5,1.218262,0.6293945,-0.1723633,-0.03173828,0.03808594,0.1674805
603,62.6875,82.5,36.375,1.012207,0.684082,-0.109375,-0.03076172,0.03564453,0.1660156
605,51.375,101,37.1875,0.8642578,0.6918945,-0.01855469,-0.02734375,0.03564453,0.1660156
606,38.125,119.125,40.5,0.7827148,0.6801758,0.05957031,-0.02246094,0.03417969,0.1616211
608,22.625,139.4375,40.3125,0.6542969,0.637207,0.1542969,-0.02001953,0.03320313,0.1616211
609,7.625,158.1875,34.75,0.4404297,0.5629883,0.2841797,-0.015625,0.03320313,0.1572266
611,-6.8125,168.5,23.5,0.1484375,0.4189453,0.4379883,-0.007324219,0.03320313,0.1557617
612,-21.625,173.875,7.9375,-0.1464844,0.3173828,0.6547852,-0.00390625,0.03320313,0.1542969
614,-35,173.3125,-7.5625,-0.4614258,0.1538086,0.9150391,-0.001464844,0.03417969,0.1542969
615,-45.0625,171,-15.9375,-0.7299805,0.02490234,1.194824,0.006347656,0.03417969,0.152832
617,-55.125,164.625,-21.875,-0.9399414,-0.08789063,1.42334,0.008789063,0.03564453,0.152832
618,-63.875,154.625,-29.6875,-1.305176,-0.2397461,1.722656,0.01123047,0.03808594,0.152832
620,-75.25,133.5,-38.1875,-1.69043,-0.3842773,2.022461,0.015625,0.03808594,0.1513672
621,-82,102.4375,-47.1875,-1.978027,-0.6806641,2.29834,0.02050781,0.0390625,0.152832
623,-76.3125,63.625,-53.8125,-2.102539,-0.9926758,2.47168,0.02050781,0.04150391,0.152832
626,-58.8125,19.125,-55.125,-2.09082,-1.210938,2.522949,0.02197266,0.04394531,0.1557617
628,-27.875,-26.375,-46.25,-1.962891,-1.386719,2.487305,0.02197266,0.04638672,0.1557617
629,9.1875,-64.625,-28.375,-1.628418,-1.320313,2.302246,0.01953125,0.04541016,0.1586914
631,37.875,-92.875,-13,-1.239258,-1.059082,2.041992,0.015625,0.04394531,0.1572266
632,59.75,-114.8125,0.875,-0.9438477,-0.7705078,1.805664,0.01220703,0.04394531,0.1572266
634,68.4375,-129.125,6.25,-0.6328125,-0.3686523,1.54541,0.01220703,0.04296875,0.1572266
635,62.0625,-137.4375,3.0625,-0.3447266,-0.03710938,1.344238,0.005371094,0.04052734,0.1572266
637,50,-139.625,-3.875,-0.09570313,0.1342773,1.12793,0.002929688,0.04052734,0.1557617
638,39.8125,-135.9375,-15.25,0.1137695,0.2197266,0.9345703,0.001953125,0.03662109,0.1542969
640,31.375,-132.5625,-23.625,0.3276367,0.2119141,0.7021484,-0.00390625,0.03808594,0.1557617
641,29.5625,-126.6875,-25.1875,0.5336914,0.1728516,0.5009766,-0.007324219,0.03564453,0.1572266
643,31.125,-114.25,-22.1875,0.7670898,0.2509766,0.3476563,-0.009765625,0.03564453,0.1572266
644,33.8125,-96.375,-17.625,0.9418945,0.3212891,0.2211914,-0.01416016,0.03417969,0.1586914
646,35.5625,-73.9375,-12.5,1.121094,0.3759766,0.08740234,-0.01660156,0.03320313,0.1601563
647,38,-50,-11.75,1.144043,0.3994141,0.02441406,-0.01904297,0.03417969,0.1586914
649,41.4375,-29.375,-7.0625,1.151855,0.3564453,-0.02636719,-0.02148438,0.03173828,0.1601563
650,48.9375,-8.5,3.25,1.210449,0.2900391,-0.07763672,-0.02246094,0.03076172,0.1586914
652,57,15.5,15.6875,1.249512,0.2900391,-0.1171875,-0.01904297,0.02929688,0.1586914
653,62.625,42.6875,24.5625,1.187012,0.3486328,-0.1132813,-0.02001953,0.02685547,0.1557617
655,61.75,64.6875,29.25,1.02002,0.4189453,-0.08544922,-0.02001953,0.02587891,0.152832
656,55.125,85,29.5625,0.8876953,0.4501953,-0.02636719,-0.01757813,0.02441406,0.1513672
658,45.75,103.5625,31.875,0.7866211,0.4462891,0.03222656,-0.01318359,0.0234375,0.1499023
659,35.5625,122.375,29.5,0.6230469,0.4658203,0.1186523,-0.009765625,0.0234375,0.1479492
661,22.9375,138.125,22.375,0.4287109,0.4619141,0.2250977,-0.008300781,0.02197266,0.1464844
662,9.875,150.3125,7.9375,0.1601563,0.3916016,0.375,-0.001464844,0.01953125,0.1435547
664,0.1875,158.6875,-9.0625,-0.1191406,0.2470703,0.5561523,0.001953125,0.02099609,0.1435547
665,-7.1875,157.375,-19.9375,-0.3251953,0.1381836,0.7021484,0.006347656,0.02197266,0.1420898
667,-11.5,152.5625,-27.6875,-0.4887695,0.01318359,0.8911133,0.01367188,0.02099609,0.1420898
668,-13.4375,147.75,-28.5625,-0.6518555,-0.06054688,1.072754,0.015625,0.02197266,0.140625
670,-15.3125,140.8125,-32.4375,-0.8154297,-0.1230469,1.206543,0.01806641,0.02099609,0.1391602
671,-17.6875,129.0625,-31.3125,-0.9282227,-0.1850586,1.344238,0.02294922,0.02099609,0.1376953
673,-16.375,118.5,-29.5,-1.017578,-0.2788086,1.470703,0.02636719,0.02197266,0.1391602
675,-14.1875,106.5,-33.375,-1.114746,-0.3139648,1.573242,0.02636719,0.02099609,0.1391602
677,-14.25,89.0625,-40.375,-1.181152,-0.3139648,1.604492,0.03125,0.01953125,0.1391602
678,-14.6875,66.75,-43.8125,-1.149902,-0.3999023,1.651855,0.03222656,0.02099609,0.1391602
680,-8,50.5,-44.9375,-1.103027,-0.4311523,1.651855,0.03222656,0.02099609,0.1376953
681,0,34.5,-39.75,-0.9902344,-0.4467773,1.608398,0.03466797,0.02197266,0.1376953
683,9.625,21.75,-37.25,-0.8735352,-0.4038086,1.537598,0.03613281,0.02197266,0.1391602
684,16.5,10.6875,-35.4375,-0.7568359,-0.2905273,1.45459,0.03710938,0.02197266,0.1391602
686,20.3125,2.4375,-33.5,-0.5976563,-0.2084961,1.356445,0.03369141,0.01855469,0.1362305
687,21.1875,-2.875,-33.1875,-0.4379883,-0.1230469,1.242188,0.03369141,0.01953125,0.1376953
689,18.0625,-5.0625,-30.5625,-0.2944336,-0.02539063,1.166992,0.03369141,0.01953125,0.1362305
690,15.8125,-4.375,-32,-0.2163086,0.02880859,1.088379,0.03369141,0.01708984,0.1362305
692,9.75,-3.4375,-36.875,-0.1542969,0.09521484,1.021484,0.03222656,0.015625,0.1362305
693,5.25,-1.75,-41.125,-0.1230469,0.07958984,0.9858398,0.02978516,0.01708984,0.1362305
695,3,-1,-41.1875,-0.06494141,0.09130859,0.9462891,0.02978516,0.01708984,0.1347656
696,1.25,1.4375,-42.1875,-0.04931641,0.1108398,0.9228516,0.02978516,0.01708984,0.1347656
698,0.4375,5,-43.25,-0.04150391,0.1264648,0.9189453,0.02978516,0.01708984,0.1362305
699,-0.25,8.125,-45.6875,-0.03369141,0.1342773,0.9111328,0.02880859,0.01464844,0.1347656
701,-1.0625,12.8125,-50.1875,-0.02587891,0.1616211,0.9033203,0.02880859,0.01708984,0.1347656
702,-1.75,16.875,-55.4375,-0.02978516,0.1577148,0.9033203,0.02880859,0.015625,0.1362305
704,-0.25,22.3125,-58.375,-0.04541016,0.1147461,0.9267578,0.02636719,0.01708984,0.1362305
705,3.0625,28.625,-59.375,-0.04541016,0.1186523,0.9423828,0.02636719,0.01464844,0.1362305
707,7.9375,38.8125,-63.6875,-0.08398438,0.1303711,0.9819336,0.02636719,0.01464844,0.1362305
708,13.8125,50.4375,-68.75,-0.1699219,0.1147461,1.044922,0.02783203,0.01318359,0.1347656
710,20.0625,64.3125,-77.6875,-0.2358398,0.1728516,1.096191,0.02636719,0.01220703,0.1347656
711,18.5625,72.0625,-87.5,-0.2241211,0.1923828,1.048828,0.02783203,0.01220703,0.1362305
713,17.9375,79.25,-97.5625,-0.2514648,0.2548828,1.021484,0.02880859,0.01220703,0.1333008
714,17.8125,83.8125,-115.5625,-0.2788086,0.3017578,1.033203,0.02783203,0.01074219,0.1347656
716,20,88.1875,-134.75,-0.3369141,0.3056641,1.072754,0.02880859,0.008300781,0.1333008
717,25.25,94,-161.0625,-0.3720703,0.3486328,1.064453,0.03125,0.007324219,0.1318359
719,21.5,74.5625,-160.4375,-0.2163086,0.08349609,0.9663086,0.02978516,0.007324219,0.1318359
720,18.1875,57.75,-136.1875,-0.1582031,-0.1694336,1.048828,0.03125,0.004882813,0.1303711
722,14.9375,48.125,-104.5,-0.2827148,-0.2280273,1.147461,0.03125,0.003417969,0.1289063
725,20.6875,42.125,-86,-0.3876953,-0.1772461,1.187012,0.03125,0.0009765625,0.1274414
727,27.875,36.0625,-72.375,-0.4262695,-0.1694336,1.202637,0.02978516,0.003417969,0.1303711
728,32.3125,31,-62.75,-0.4223633,-0.09179688,1.178711,0.02978516,-0.0009765625,0.1274414
730,31.375,24.125,-56.8125,-0.449707,-0.02929688,1.183105,0.03125,-0.0009765625,0.1289063
731,29.3125,18.25,-53,-0.4731445,-0.005859375,1.163086,0.02978516,-0.0009765625,0.1274414
733,22.8125,10.6875,-46.5625,-0.4536133,-0.02929688,1.155273,0.02978516,-0.001953125,0.1259766
734,22.625,8.25,-41.125,-0.4770508,-0.04882813,1.147461,0.02978516,-0.003417969,0.1259766
736,22.1875,4.375,-32.5625,-0.4614258,-0.06445313,1.143555,0.02978516,-0.004394531,0.1259766
737,24.3125,2.625,-25.625,-0.4575195,-0.04492188,1.119629,0.02978516,-0.006835938,0.1245117
739,27.25,1,-22.75,-0.4614258,-0.01367188,1.100098,0.02978516,-0.006835938,0.1259766
740,28.375,-0.5,-22.125,-0.4731445,0.01708984,1.07666,0.03222656,-0.006835938,0.1245117
742,32,-1.1875,-25.625,-0.4614258,0.03662109,1.056641,0.02978516,-0.009277344,0.1245117
743,34.9375,-2.9375,-32.6875,-0.4848633,0.08349609,1.021484,0.02783203,-0.009277344,0.1230469
745,40.5625,-5.5625,-42.5625,-0.5043945,0.08349609,0.9975586,0.02783203,-0.008300781,0.1245117
746,46.4375,-7.375,-52.3125,-0.5043945,0.08740234,0.9624023,0.02539063,-0.01171875,0.121582
748,50.4375,-14.125,-73.8125,-0.496582,0.1147461,0.9306641,0.02783203,-0.01416016,0.1230469
749,51.75,-25.375,-101,-0.5004883,0.1381836,0.9033203,0.02392578,-0.015625,0.121582
751,55.4375,-38.125,-125.1875,-0.480957,0.1381836,0.8793945,0.02392578,-0.01904297,0.121582
752,58.9375,-50.25,-143.25,-0.4111328,0.1069336,0.8676758,0.02050781,-0.01904297,0.121582
754,62.0625,-59.5,-151.5,-0.3095703,0.05224609,0.8989258,0.01953125,-0.02294922,0.121582
755,60.625,-62.625,-147,-0.2358398,0.01318359,0.9345703,0.01367188,-0.02539063,0.1201172
757,57.5625,-60.4375,-130.4375,-0.1816406,-0.05664063,0.9819336,0.01123047,-0.02783203,0.1201172
758,51.8125,-54.125,-110.625,-0.1582031,-0.09179688,0.9858398,0.0078125,-0.02880859,0.1201172
760,47.875,-48.1875,-90.6875,-0.1967773,-0.1113281,0.9975586,0.00390625,-0.03271484,0.1186523
761,46.1875,-41.8125,-75.5,-0.2436523,-0.07617188,0.9663086,0.001953125,-0.03515625,0.1201172
763,48.5,-36.5625,-64.375,-0.2592773,-0.04882813,0.9501953,0.002929688,-0.03759766,0.1201172
764,47.375,-31.625,-54.125,-0.2475586,-0.04492188,0.9501953,-0.001464844,-0.04101563,0.1186523
766,48.625,-26.8125,-45.8125,-0.2241211,-0.005859375,0.9306641,-0.001464844,-0.04003906,0.1186523
767,50.0625,-23.125,-39.9375,-0.2045898,0.02880859,0.9072266,-0.00390625,-0.04248047,0.1186523
769,48.875,-19.8125,-35.375,-0.1855469,0.06787109,0.8989258,-0.00390625,-0.04736328,0.1171875
770,46.75,-19.375,-31.75,-0.1621094,0.08740234,0.8676758,-0.00390625,-0.04736328,0.1171875
772,43.9375,-21.875,-27.375,-0.1542969,0.1264648,0.8637695,-0.005859375,-0.04980469,0.1171875
774,31.375,-29.4375,-24.5,-0.1503906,0.1538086,0.871582,-0.005859375,-0.05224609,0.1157227
776,19.4375,-37.625,-21.6875,-0.1308594,0.1538086,0.8754883,-0.007324219,-0.05224609,0.1201172
777,14.1875,-43.1875,-16.5,-0.09960938,0.1538086,0.8676758,-0.008300781,-0.05224609,0.1186523
779,3.5625,-49.125,-7.875,-0.09179688,0.1420898,0.8481445,-0.008300781,-0.05322266,0.1186523
780,-2.9375,-56.0625,2.875,-0.08056641,0.1499023,0.8754883,-0.01171875,-0.05322266,0.1186523
782,-1.1875,-60.8125,14.4375,-0.09179688,0.1303711,0.871582,-0.01416016,-0.0546875,0.1201172
783,-2.375,-63.5,23.375,-0.1152344,0.1499023,0.8320313,-0.015625,-0.05224609,0.1201172
785,-8.375,-67.25,32.625,-0.1425781,0.1342773,0.8007813,-0.015625,-0.05078125,0.1201172
786,-11.4375,-67.8125,41.25,-0.1699219,0.1459961,0.828125,-0.01660156,-0.05078125,0.121582
788,-16.8125,-68.5,48.8125,-0.2045898,0.1069336,0.8359375,-0.02148438,-0.04980469,0.1230469
789,-21.125,-67.375,56.3125,-0.2280273,0.06787109,0.84375,-0.02001953,-0.04980469,0.1245117
791,-27.75,-67.125,62.875,-0.2514648,0.04052734,0.8637695,-0.02246094,-0.04833984,0.1245117
792,-44.6875,-74.1875,73.375,-0.2788086,-0.02929688,0.784668,-0.02392578,-0.04589844,0.1259766
794,-93,-103.6875,102.1875,-0.1967773,-0.07226563,0.8911133,-0.02587891,-0.04248047,0.1274414
795,-97.9375,-76.75,93.75,-0.2124023,0.01318359,1.218262,-0.02832031,-0.03857422,0.1289063
797,-78.125,-62.4375,75.5,-0.3212891,0.04052734,1.084473,-0.02978516,-0.03369141,0.1303711
798,-51.9375,-53.0625,51.375,-0.3916016,0.05224609,1.029297,-0.03076172,-0.03271484,0.1333008
800,-33.1875,-47,27.0625,-0.3837891,0.04052734,1.044922,-0.03173828,-0.03027344,0.1347656
801,-23.625,-41.3125,6.6875,-0.3251953,0.02880859,1.052734,-0.03320313,-0.02880859,0.1347656
803,-23.9375,-40.5625,-8.1875,-0.2709961,0.001464844,1.025391,-0.03320313,-0.02783203,0.1347656
804,-27,-39.125,-16.6875,-0.2241211,-0.01367188,1.041016,-0.03417969,-0.02783203,0.1362305
806,-27.25,-37.9375,-21.1875,-0.1816406,-0.02539063,1.041016,-0.03564453,-0.02636719,0.1376953
807,-26.875,-36.375,-25.75,-0.1621094,-0.02539063,1.064453,-0.03808594,-0.02783203,0.1376953
809,-23.25,-35.1875,-27.9375,-0.1386719,-0.06445313,1.10791,-0.0390625,-0.02636719,0.140625
810,-11.8125,-34.4375,-23.625,-0.1425781,-0.1152344,1.170898,-0.04150391,-0.02636719,0.140625
812,-1.5625,-38.3125,-14,-0.1933594,-0.1269531,1.143555,-0.04150391,-0.02392578,0.1420898
813,-0.375,-35.6875,-7.5,-0.1967773,-0.07226563,1.135742,-0.04248047,-0.02539063,0.140625
815,-3.75,-31.375,-8.5625,-0.1777344,-0.02539063,1.084473,-0.04492188,-0.02636719,0.1376953
816,-3.375,-29.4375,-15.375,-0.1542969,-0.001953125,1.025391,-0.04394531,-0.02636719,0.140625
818,-2.4375,-28.9375,-22.0625,-0.1347656,0.009277344,1.009277,-0.04492188,-0.02539063,0.1435547
819,-0.75,-25.625,-27.25,-0.1113281,0.009277344,1.048828,-0.04589844,-0.02636719,0.1435547
821,0.4375,-23.25,-33.8125,-0.09570313,0.03271484,1.052734,-0.04736328,-0.02636719,0.1435547
824,-2.5,-21.0625,-45.1875,-0.1074219,0.03662109,1.072754,-0.04736328,-0.02636719,0.1435547
826,-8,-18.5,-57.25,-0.1347656,0.01708984,1.092285,-0.04833984,-0.02783203,0.1450195
827,-17.0625,-15.125,-69.8125,-0.1660156,0.02099609,1.135742,-0.04980469,-0.02783203,0.1450195
829,-24.0625,-11.125,-82.8125,-0.1777344,0.01708984,1.151367,-0.05175781,-0.02880859,0.1464844
830,-25.125,-7.75,-93.75,-0.1621094,0.02880859,1.139648,-0.05175781,-0.02880859,0.1435547
832,-26.25,-7.1875,-102,-0.1464844,0.03271484,1.12793,-0.05322266,-0.02880859,0.1435547
833,-26.375,-0.25,-109.125,-0.1738281,0.04443359,1.151367,-0.05419922,-0.03027344,0.1450195
835,-22.9375,16.1875,-125.0625,-0.1855469,0.09912109,1.202637,-0.05664063,-0.03271484,0.1435547
836,-17.8125,36.8125,-149.8125,-0.2045898,0.1499023,1.218262,-0.05664063,-0.03515625,0.1479492
838,-16.0625,57,-181.8125,-0.2592773,0.1459961,1.261719,-0.05664063,-0.03515625,0.1450195
839,-4.625,80.625,-215.1875,-0.2553711,0.1342773,1.238281,-0.05566406,-0.04003906,0.1435547
841,-25.25,110.625,-355.1875,0.3740234,0.6333008,1.068359,-0.05566406,-0.04345703,0.1435547
842,-61.5,111.4375,-412.625,-0.3486328,-0.2280273,0.737793,-0.05566406,-0.04589844,0.140625
844,-67.75,86.3125,-304.25,-0.5625,-0.2592773,0.9858398,-0.05419922,-0.05322266,0.140625
845,-39.4375,89.0625,-240.9375,-0.3955078,-0.02539063,1.048828,-0.05566406,-0.05566406,0.1362305
847,-6.8125,87.9375,-250.5,-0.09179688,0.1616211,0.887207,-0.05419922,-0.05810547,0.1362305
848,12.6875,74.375,-305.3125,0.05126953,0.2744141,0.7333984,-0.05322266,-0.06445313,0.1362305
850,23.5625,62.75,-359.5,-0.01025391,0.2353516,0.7177734,-0.05078125,-0.06787109,0.1333008
851,37.125,54.3125,-384.25,-0.09960938,0.02099609,0.8637695,-0.05175781,-0.07177734,0.1333008
853,95,39.375,-385.875,-0.1230469,-0.02539063,0.8676758,-0.05078125,-0.08398438,0.1303711
854,118.625,34.8125,-403.5625,-0.05712891,0.1616211,0.8911133,-0.05175781,-0.09130859,0.1303711
856,120.375,30.6875,-427.1875,-0.03759766,0.1264648,0.8676758,-0.04980469,-0.09960938,0.1274414
857,115.6875,18.6875,-440.625,-0.1542969,0.09912109,0.769043,-0.04589844,-0.1147461,0.1289063
859,64.5625,-0.875,-447.75,-0.1816406,0.1147461,0.6782227,-0.04736328,-0.1230469,0.1289063
860,-27.6875,-28.4375,-433.9375,-0.2475586,0.1845703,0.4658203,-0.04736328,-0.1279297,0.1289063
862,-124.0625,-53.3125,-446.375,-0.1464844,0.1147461,0.4262695,-0.04492188,-0.1352539,0.1274414
863,-183.25,-76.25,-444.5,-0.09179688,-0.02929688,0.4970703,-0.04492188,-0.1391602,0.1289063
865,-211.1875,-90.0625,-426.1875,-0.02587891,-0.1035156,0.6625977,-0.04394531,-0.1376953,0.1303711
866,-206.4375,-102.3125,-392.4375,-0.04150391,-0.2436523,0.769043,-0.04589844,-0.1391602,0.1318359
868,-187.5,-117.6875,-343.1875,-0.03759766,-0.3413086,0.9306641,-0.04736328,-0.1376953,0.1289063
869,-176,-129.25,-287.4375,-0.02978516,-0.4311523,1.056641,-0.04833984,-0.1376953,0.1333008
871,-176.25,-137.1875,-237.625,0.02783203,-0.4936523,1.048828,-0.04980469,-0.1376953,0.1318359
873,-180,-140.6875,-195.6875,0.1020508,-0.5205078,0.9819336,-0.05175781,-0.1376953,0.1333008
875,-177.8125,-137.9375,-160.5625,0.1523438,-0.5322266,0.9584961,-0.05419922,-0.1367188,0.1347656
876,-169,-127.5,-134.875,0.1835938,-0.5322266,0.9780273,-0.06152344,-0.1293945,0.1362305
878,-152,-112.3125,-115.375,0.203125,-0.5595703,1.005371,-0.06396484,-0.1279297,0.1391602
879,-129.9375,-93.4375,-98.375,0.2304688,-0.5908203,1.041016,-0.06494141,-0.1279297,0.140625
881,-105.5,-72.9375,-79.75,0.2421875,-0.6181641,1.056641,-0.06738281,-0.1245117,0.1420898
882,-78.25,-51.3125,-58.8125,0.2421875,-0.6298828,1.056641,-0.06835938,-0.1220703,0.1420898
884,-52.3125,-31.4375,-38.75,0.25,-0.6298828,1.033203,-0.07080078,-0.1206055,0.1435547
885,-30.375,-12.25,-21.1875,0.253418,-0.6025391,1.013184,-0.07080078,-0.1196289,0.1464844
887,-14.25,2.375,-8.4375,0.2421875,-0.5908203,0.9975586,-0.07177734,-0.1181641,0.1435547
888,-1.8125,11.8125,1.6875,0.21875,-0.5712891,0.9741211,-0.07177734,-0.1206055,0.1450195
890,7,15.8125,10.75,0.1875,-0.5400391,0.9501953,-0.07080078,-0.1206055,0.1450195
891,14.625,14.25,17.5,0.1640625,-0.5009766,0.9306641,-0.07080078,-0.1181641,0.1450195
893,16.875,9.5,24.625,0.121582,-0.4819336,0.9267578,-0.07080078,-0.1206055,0.1450195
894,14.5,3.75,33.1875,0.1098633,-0.4702148,0.9267578,-0.06982422,-0.1196289,0.1420898
896,8.5625,-3.0625,41.1875,0.08642578,-0.4663086,0.9306641,-0.06982422,-0.1206055,0.1450195
897,2.8125,-8.0625,49.625,0.07080078,-0.4741211,0.9306641,-0.06982422,-0.1181641,0.1435547
899,0.375,-13,58.0625,0.07080078,-0.4819336,0.9306641,-0.06982422,-0.1181641,0.1450195
900,1.625,-15.1875,65.25,0.07470703,-0.4858398,0.9423828,-0.07324219,-0.1157227,0.1450195
902,4.125,-15.9375,71.1875,0.07470703,-0.4936523,0.9384766,-0.07177734,-0.1157227,0.1464844
903,9.0625,-15.625,78,0.07080078,-0.4897461,0.9189453,-0.07324219,-0.1147461,0.1464844
905,13.875,-13.375,86.75,0.07470703,-0.4975586,0.9189453,-0.07324219,-0.1147461,0.1464844
906,26.0625,-13.8125,91.5625,0.1137695,-0.4858398,0.9189453,-0.07324219,-0.1132813,0.1464844
908,52.0625,-6.8125,84.9375,0.137207,-0.5048828,0.9819336,-0.07568359,-0.1123047,0.1435547
909,64.25,-4.1875,84.0625,0.07080078,-0.5048828,0.887207,-0.07421875,-0.1123047,0.1479492
911,48.9375,-15.3125,92.625,0.03564453,-0.4624023,0.8398438,-0.07666016,-0.1108398,0.1464844
912,31.5,-25.375,101.75,0.05126953,-0.4350586,0.8950195,-0.07568359,-0.1108398,0.1464844
914,17.1875,-30.3125,111,0.04736328,-0.4038086,0.9189453,-0.07568359,-0.1083984,0.1464844
915,16,-31.5,116.1875,0.08251953,-0.3803711,0.9541016,-0.07666016,-0.1074219,0.1479492
917,24.1875,-28.5,119.375,0.09814453,-0.3647461,0.9819336,-0.07910156,-0.1049805,0.1499023
918,17.375,-28.75,128.375,0.08642578,-0.3334961,0.9189453,-0.08007813,-0.1049805,0.1479492
920,16.1875,-36.1875,131.3125,0.1098633,-0.3295898,0.9228516,-0.08007813,-0.1010742,0.1464844
923,11.375,-40.3125,133.75,0.08251953,-0.3452148,0.9267578,-0.08251953,-0.09960938,0.1499023
925,2.5625,-46.875,135.3125,0.09033203,-0.3374023,0.9228516,-0.08251953,-0.09716797,0.1513672
926,-15.8125,-55.875,140.4375,0.05517578,-0.3530273,0.871582,-0.08398438,-0.09472656,0.152832
928,-25.0625,-63.125,140.625,0.1137695,-0.3491211,0.9189453,-0.08496094,-0.09228516,0.1557617
929,-25.5625,-63.375,141.25,0.105957,-0.3608398,0.9306641,-0.08496094,-0.08740234,0.1572266
931,-30.75,-65,139.5,0.09814453,-0.3686523,0.9267578,-0.08740234,-0.08496094,0.1557617
932,-35.75,-65.5,140.25,0.1098633,-0.4116211,0.9228516,-0.09082031,-0.07910156,0.1601563
934,-32.75,-62.125,138.0625,0.1137695,-0.4350586,0.9345703,-0.08984375,-0.07666016,0.1616211
935,-32.375,-59.625,135.75,0.1098633,-0.4389648,0.9072266,-0.09082031,-0.07421875,0.1616211
937,-34.5,-60.3125,133.625,0.1098633,-0.4389648,0.8833008,-0.09228516,-0.06787109,0.1645508
938,-39.75,-59.8125,127.25,0.1098633,-0.4194336,0.8950195,-0.09326172,-0.06445313,0.1645508
940,-42.0625,-56.625,117.875,0.09814453,-0.4350586,0.8989258,-0.09326172,-0.06201172,0.1660156
941,-41.875,-51.8125,110.25,0.06689453,-0.4389648,0.8911133,-0.09228516,-0.0546875,0.1674805
943,-40.25,-48.125,104.25,0.06689453,-0.4467773,0.8833008,-0.09326172,-0.0546875,0.1704102
944,-37.75,-44,98.0625,0.08251953,-0.4428711,0.8793945,-0.09570313,-0.04980469,0.1704102
946,-34.5625,-41.25,91.375,0.07861328,-0.4584961,0.8989258,-0.09570313,-0.04589844,0.171875
947,-31.0625,-37.125,84.125,0.07861328,-0.4780273,0.8950195,-0.09667969,-0.04345703,0.1733398
949,-30.125,-33.5625,79.875,0.05517578,-0.4936523,0.8833008,-0.09570313,-0.04345703,0.1748047
950,-31.25,-30.9375,76.9375,0.04345703,-0.4897461,0.887207,-0.09667969,-0.03759766,0.1762695
952,-30.9375,-28.375,73.75,0.04345703,-0.4780273,0.887207,-0.09667969,-0.03857422,0.1762695
953,-30.0625,-24.9375,69.75,0.05126953,-0.4663086,0.887207,-0.09570313,-0.03613281,0.1748047
955,-31.625,-20.75,67,0.05126953,-0.4741211,0.8950195,-0.09667969,-0.03027344,0.1791992
956,-32.0625,-18.9375,65.75,0.05908203,-0.4663086,0.8676758,-0.09570313,-0.03027344,0.1791992
958,-33.4375,-18.9375,65.0625,0.05517578,-0.4663086,0.8676758,-0.09667969,-0.02880859,0.1791992
959,-40.0625,-19.8125,63.3125,0.07470703,-0.4467773,0.8637695,-0.09570313,-0.02539063,0.1806641
961,-49.0625,-21.4375,61.3125,0.06689453,-0.4624023,0.8398438,-0.09570313,-0.02392578,0.1821289
962,-57.25,-25.8125,60.0625,0.07080078,-0.4819336,0.8359375,-0.09570313,-0.02148438,0.1821289
964,-61.125,-27.25,58.875,0.08251953,-0.5009766,0.8481445,-0.09423828,-0.01806641,0.1850586
965,-60.5,-25.4375,57.125,0.07470703,-0.5126953,0.8637695,-0.09667969,-0.01660156,0.1850586
967,-56.875,-23.4375,56.625,0.04736328,-0.5556641,0.8598633,-0.09570313,-0.01318359,0.1850586
968,-54.5,-23.1875,57.1875,0.008789063,-0.5751953,0.84375,-0.09667969,-0.009277344,0.1865234
970,-54.1875,-21.5,56.6875,-0.01025391,-0.5947266,0.8242188,-0.09570313,-0.009277344,0.190918
972,-53.75,-18.875,54.5625,-0.02587891,-0.6064453,0.8203125,-0.09423828,-0.006835938,0.1894531
974,-49.6875,-14.5,50.1875,-0.01025391,-0.6142578,0.828125,-0.09570313,-0.003417969,0.1894531
975,-44.0625,-9.25,43.875,-0.01025391,-0.5986328,0.8164063,-0.09423828,-0.0009765625,0.1923828
977,-38.8125,-4.5625,37.625,-0.006347656,-0.6064453,0.8242188,-0.09423828,0,0.1923828
978,-32.5625,0,32.25,-0.01025391,-0.5986328,0.8125,-0.09423828,0.0009765625,0.1938477
980,-28.0625,2.25,27.625,-0.002441406,-0.5830078,0.8046875,-0.09228516,0.004882813,0.1938477
981,-24.6875,3.6875,23.75,0.0009765625,-0.5791016,0.8085938,-0.09326172,0.004882813,0.1938477
983,-22.3125,4.625,20.8125,-0.006347656,-0.5673828,0.8007813,-0.09228516,0.005859375,0.1938477
984,-20.4375,4.75,18.625,-0.01025391,-0.5634766,0.7885742,-0.09326172,0.003417969,0.1938477
986,-20.9375,2.5,16.25,-0.01025391,-0.5595703,0.796875,-0.09228516,0.007324219,0.1953125
987,-22.0625,1.3125,14.3125,-0.01416016,-0.5556641,0.8007813,-0.08984375,0.007324219,0.1953125
989,-22.3125,0.1875,12.5625,-0.01806641,-0.5712891,0.8007813,-0.09228516,0.008300781,0.1953125
990,-21.125,0,11.0625,-0.01806641,-0.5830078,0.7929688,-0.09082031,0.008300781,0.1953125
992,-20.625,-1,10.8125,-0.02197266,-0.5908203,0.7929688,-0.09082031,0.009765625,0.1953125
993,-21.625,-2.0625,10.625,-0.04150391,-0.5908203,0.7885742,-0.09082031,0.01074219,0.1953125
995,-23.375,-3.25,10.0625,-0.04150391,-0.6025391,0.8007813,-0.09082031,0.01074219,0.1982422
996,-22.4375,-2.75,9.25,-0.03759766,-0.5947266,0.8046875,-0.09082031,0.01220703,0.1953125
998,-20.25,-2.625,8.125,-0.02978516,-0.5830078,0.8085938,-0.08984375,0.01220703,0.1967773
999,-18.3125,-2.3125,7.1875,-0.02197266,-0.5830078,0.784668,-0.09082031,0.01220703,0.1953125
1001,-18.5,-3.625,4.6875,-0.02197266,-0.5830078,0.8007813,-0.09082031,0.01318359,0.1967773
1002,-20.5,-4,2.5,-0.02978516,-0.5791016,0.8125,-0.09082031,0.01318359,0.1982422
1004,-19.4375,-2.8125,-0.0625,-0.01806641,-0.5830078,0.8085938,-0.09082031,0.01318359,0.199707
1005,-17.5625,-2.125,-1.6875,-0.01416016,-0.5908203,0.8125,-0.09082031,0.01464844,0.2011719
1007,-16.6875,-2,-2.1875,0.0009765625,-0.5791016,0.8125,-0.09082031,0.01464844,0.199707
1008,-17.6875,-2.5625,-1.75,0.008789063,-0.5830078,0.796875,-0.09082031,0.01464844,0.199707
1010,-18.6875,-2.3125,-0.875,0.01269531,-0.5869141,0.8007813,-0.09228516,0.015625,0.2011719
1011,-21,-3.3125,-0.125,-0.006347656,-0.5830078,0.8007813,-0.09326172,0.01708984,0.199707
1013,-22.75,-4.875,-0.625,-0.01806641,-0.6103516,0.8164063,-0.09082031,0.015625,0.2026367
1014,-23.8125,-6.625,-1.5625,-0.02978516,-0.6533203,0.8164063,-0.09228516,0.01464844,0.2041016
1016,-23.4375,-6.25,-1.5625,-0.02587891,-0.6962891,0.828125,-0.09228516,0.015625,0.2041016
1017,-23.4375,-6.1875,-0.8125,-0.01806641,-0.7119141,0.8125,-0.09082031,0.01708984,0.2026367
1019,-21.625,-5.375,-0.75,-0.002441406,-0.7158203,0.8398438,-0.09082031,0.01855469,0.2055664
1022,-18.375,-4.375,-1.125,0.008789063,-0.7119141,0.828125,-0.09082031,0.01855469,0.2055664
1024,-16.125,-3.5625,-1.875,0.004882813,-0.7119141,0.8242188,-0.09228516,0.01855469,0.2041016
1025,-15.8125,-2.75,-2.8125,0.004882813,-0.7236328,0.8203125,-0.09228516,0.02099609,0.2055664
1027,-15,-2.8125,-2.625,0.004882813,-0.7470703,0.8359375,-0.09228516,0.01855469,0.2041016
1028,-11.25,-1.625,0.3125,-0.002441406,-0.7626953,0.8481445,-0.09228516,0.01953125,0.2041016
1030,-6.8125,-0.875,4.4375,0.004882813,-0.7548828,0.855957,-0.09082031,0.02099609,0.2075195
1031,-4.1875,0.375,7.125,0.008789063,-0.7119141,0.8359375,-0.09228516,0.01855469,0.2055664
1033,-2.1875,0.6875,7.25,0.02050781,-0.6806641,0.828125,-0.09326172,0.01953125,0.2075195
1034,0.5,2.5625,6.5625,0.008789063,-0.6494141,0.8398438,-0.09228516,0.01953125,0.2075195
1036,0.4375,3.375,5.4375,0.004882813,-0.6220703,0.8320313,-0.09228516,0.01855469,0.2075195
1037,0.5,2.8125,3.3125,-0.002441406,-0.6103516,0.828125,-0.09228516,0.01953125,0.2075195
1039,1,0.75,1.4375,-0.01025391,-0.6259766,0.8320313,-0.09228516,0.01953125,0.2041016
1040,1.5625,0.125,1.8125,-0.02978516,-0.6611328,0.828125,-0.09082031,0.01855469,0.2075195
1042,0.875,-1.1875,3.75,-0.02978516,-0.6923828,0.8398438,-0.09228516,0.01953125,0.2075195
1043,1.625,-0.125,6.625,-0.04541016,-0.7041016,0.855957,-0.09228516,0.01953125,0.2075195
1045,2.1875,-1.125,10.5,-0.04150391,-0.6923828,0.828125,-0.09082031,0.01953125,0.2055664
1046,2.375,-1.5625,12.875,-0.03759766,-0.6689453,0.8320313,-0.09082031,0.02099609,0.2055664
1048,2.6875,-1.4375,13.25,-0.02978516,-0.6533203,0.8203125,-0.09082031,0.02197266,0.2041016
1049,2.375,-1.1875,12.4375,-0.02587891,-0.6337891,0.8203125,-0.09082031,0.02197266,0.2055664
1051,1.125,-0.4375,10.5625,-0.02978516,-0.6298828,0.8242188,-0.08984375,0.02099609,0.2055664
1052,-0.375,0.0625,8.8125,-0.02587891,-0.6455078,0.8125,-0.08984375,0.02197266,0.2055664
1054,-1.4375,1.375,7.4375,-0.02978516,-0.6494141,0.8125,-0.08984375,0.01953125,0.2055664
1055,-3.0625,2.25,6.75,-0.03369141,-0.6572266,0.8125,-0.08984375,0.02197266,0.2075195
1057,-2.3125,3.75,6.5625,-0.03369141,-0.6689453,0.8125,-0.08984375,0.02099609,0.2075195
1058,-1.1875,4,7.0625,-0.03759766,-0.6572266,0.796875,-0.08984375,0.0234375,0.2055664
1060,-0.25,3.3125,6.8125,-0.03369141,-0.6611328,0.796875,-0.08984375,0.02197266,0.2075195
1061,-0.375,1.75,6.1875,-0.03369141,-0.6533203,0.7885742,-0.08984375,0.02197266,0.2041016
1063,0.5625,1.75,4.625,-0.02587891,-0.6533203,0.7807617,-0.08837891,0.02197266,0.2055664
1064,2.5625,2.25,3.9375,-0.02587891,-0.6572266,0.7885742,-0.08984375,0.0234375,0.2041016
1066,5.4375,4.4375,3,-0.01416016,-0.6416016,0.7768555,-0.08984375,0.02099609,0.2075195
1067,6.4375,5.75,2.5,-0.01416016,-0.6103516,0.784668,-0.08984375,0.02197266,0.2055664
1069,6.625,6.6875,1.3125,-0.01025391,-0.5908203,0.7807617,-0.08984375,0.0234375,0.2041016
1071,5.8125,6.4375,0.625,-0.006347656,-0.5830078,0.784668,-0.08984375,0.02197266,0.2041016
1073,4.6875,5.625,0,-0.02197266,-0.5908203,0.769043,-0.08984375,0.0234375,0.2041016
1074,2.9375,3.5625,-1.0625,-0.02197266,-0.5986328,0.7807617,-0.08837891,0.02197266,0.2041016
1076,1.875,3.4375,-1.6875,-0.02587891,-0.6025391,0.784668,-0.08837891,0.02099609,0.2026367
1077,1.4375,4.1875,-1.375,-0.02197266,-0.6025391,0.796875,-0.08984375,0.0234375,0.2041016
1079,-0.75,7.75,-0.9375,-0.01806641,-0.5869141,0.7807617,-0.08837891,0.02197266,0.2026367
1080,-1.8125,6.625,-2.75,0.0009765625,-0.5830078,0.796875,-0.08837891,0.01953125,0.2026367
1082,-1.6875,7.0625,-5.125,0.01660156,-0.5634766,0.8164063,-0.08740234,0.02099609,0.2041016
1083,-1.5,6.8125,-8.625,0.01269531,-0.5634766,0.796875,-0.08837891,0.02197266,0.2041016
1085,-2.3125,6.75,-10.75,0.0009765625,-0.5791016,0.7807617,-0.08837891,0.02197266,0.2041016
1086,-4.25,5.875,-11.375,-0.01025391,-0.6103516,0.7929688,-0.08740234,0.01953125,0.2026367
1088,-4.6875,5.9375,-10.875,-0.002441406,-0.6376953,0.8046875,-0.08837891,0.02197266,0.2026367
1089,-4.875,5.875,-10.25,0.004882813,-0.6376953,0.8007813,-0.08984375,0.02099609,0.2041016
1091,-4.4375,6.875,-10.6875,0.008789063,-0.6376953,0.796875,-0.0859375,0.02197266,0.2041016
1092,-5.3125,7.1875,-12.125,0.01269531,-0.6337891,0.8046875,-0.08740234,0.02099609,0.2026367
1094,-6,7.5625,-13.8125,0.01269531,-0.6259766,0.796875,-0.08740234,0.02099609,0.2026367
1095,-6.9375,7.5625,-16.125,0.01660156,-0.6298828,0.7929688,-0.08837891,0.02099609,0.2011719
1097,-5.75,7.75,-18.4375,0.02050781,-0.6572266,0.7885742,-0.08837891,0.02197266,0.2041016
1098,-4.0625,6.375,-20.75,0.01269531,-0.6884766,0.7768555,-0.08984375,0.01953125,0.2026367
1100,-0.5625,6.3125,-21.3125,0.01269531,-0.7197266,0.7807617,-0.08837891,0.01953125,0.2041016
1101,5.125,5.875,-21.125,0.004882813,-0.7509766,0.769043,-0.08984375,0.02099609,0.2011719
1103,6.3125,5,-19.5,0.01269531,-0.7666016,0.7729492,-0.08837891,0.01855469,0.2026367
1104,6.1875,3.5,-17,0.01660156,-0.7666016,0.753418,-0.08984375,0.01855469,0.2011719
1106,7.9375,2.875,-15.375,0.01269531,-0.7470703,0.753418,-0.08984375,0.01855469,0.2011719
1107,10.375,3.1875,-15.25,0.02441406,-0.7314453,0.769043,-0.08984375,0.01708984,0.199707
1109,14.0625,4.625,-15.25,0.01269531,-0.7197266,0.769043,-0.09082031,0.01708984,0.2011719
1110,17,5.5,-13.4375,0.02050781,-0.7275391,0.7729492,-0.08837891,0.015625,0.2011719
1112,18.75,6.8125,-9.3125,0.008789063,-0.7236328,0.7612305,-0.09082031,0.015625,0.199707
1113,18.0625,5.75,-6.125,0.01269531,-0.6884766,0.7495117,-0.08984375,0.015625,0.1982422
1115,17.8125,4.9375,-4.1875,0.01269531,-0.6650391,0.7573242,-0.09082031,0.01318359,0.1982422
1116,18.75,4.5,-3.875,0.004882813,-0.6298828,0.7573242,-0.08984375,0.01464844,0.1982422
1118,18.9375,5.1875,-3.6875,0.008789063,-0.6181641,0.753418,-0.09082031,0.01464844,0.1982422
1121,17.5625,4.75,-4.4375,0.004882813,-0.5986328,0.7573242,-0.09082031,0.01318359,0.1967773
1123,16,3.5,-5.75,-0.002441406,-0.5830078,0.7573242,-0.08837891,0.01464844,0.1982422
1124,12.75,1.6875,-7.75,-0.01025391,-0.5908203,0.7573242,-0.08984375,0.01220703,0.1982422
1126,10.5,0.75,-9.0625,-0.01025391,-0.6064453,0.7456055,-0.08984375,0.01074219,0.1982422
1127,9.25,-0.25,-10.0625,-0.01025391,-0.6142578,0.7612305,-0.08984375,0.01074219,0.1982422
1129,8.5625,-1.25,-11.125,-0.006347656,-0.6103516,0.753418,-0.08984375,0.01074219,0.1967773
1130,8.375,-1.6875,-12.875,0.004882813,-0.6103516,0.7495117,-0.08984375,0.009765625,0.1982422
1132,8.3125,-2.3125,-13.625,0.008789063,-0.6103516,0.753418,-0.09228516,0.009765625,0.1967773
1133,8.75,-1.5625,-14.0625,0.01660156,-0.6103516,0.7495117,-0.08984375,0.007324219,0.1953125
1135,8.9375,-1.9375,-13.75,0.02441406,-0.6064453,0.753418,-0.09082031,0.008300781,0.1967773
1136,9,-2.375,-12.4375,0.02783203,-0.6103516,0.7456055,-0.09228516,0.008300781,0.1967773
1138,8.625,-3.125,-9.75,0.02441406,-0.6259766,0.7573242,-0.09228516,0.008300781,0.1953125
1139,8,-2.8125,-6.375,0.02783203,-0.6337891,0.753418,-0.09228516,0.007324219,0.1967773
1141,7.1875,-3.8125,-4.25,0.03955078,-0.6103516,0.7573242,-0.09326172,0.005859375,0.1967773
1142,7.0625,-3.6875,-2.75,0.04345703,-0.6103516,0.7612305,-0.09228516,0.007324219,0.1953125
1144,6.625,-3.5625,-2.1875,0.05517578,-0.5908203,0.7729492,-0.09423828,0.005859375,0.1953125
1145,5.125,-2.1875,-2.875,0.05126953,-0.5830078,0.7729492,-0.09082031,0.005859375,0.1967773
1147,3.5,-1.75,-4.125,0.05126953,-0.5634766,0.784668,-0.09326172,0.007324219,0.1982422
1148,2.9375,-0.625,-6.1875,0.05517578,-0.5634766,0.7768555,-0.09228516,0.007324219,0.1967773
1150,2.3125,-1.125,-8.0625,0.05517578,-0.5673828,0.7807617,-0.09228516,0.005859375,0.1953125
1151,1.8125,-1.0625,-9.375,0.05126953,-0.5908203,0.7885742,-0.09326172,0.005859375,0.1953125
1153,1.125,-1.625,-9.5,0.05908203,-0.6142578,0.7807617,-0.09326172,0.005859375,0.1967773
1154,1.3125,-2.1875,-8.75,0.05126953,-0.6298828,0.7768555,-0.09228516,0.005859375,0.1938477
1156,0.875,-2.125,-7.9375,0.05908203,-0.6298828,0.7807617,-0.09423828,0.004882813,0.1953125
1157,1.4375,-1.25,-7.625,0.05517578,-0.6259766,0.784668,-0.09228516,0.005859375,0.1967773
1159,2,-0.375,-8.5,0.06689453,-0.6103516,0.784668,-0.09423828,0.005859375,0.1967773
1160,2.9375,0.5,-9.9375,0.07080078,-0.6103516,0.784668,-0.09423828,0.004882813,0.1967773
1162,3.3125,1.375,-10.1875,0.07080078,-0.6103516,0.7885742,-0.09326172,0.005859375,0.1967773
1163,4.3125,2.5625,-9.6875,0.07080078,-0.6142578,0.7929688,-0.09423828,0.003417969,0.1953125
1165,2.5,2.25,-8.875,0.07470703,-0.6025391,0.784668,-0.09326172,0.004882813,0.1953125
1166,0.8125,1.875,-8.25,0.07470703,-0.6064453,0.7885742,-0.09423828,0.003417969,0.1953125
1168,0.375,1.1875,-8.625,0.07861328,-0.6103516,0.7929688,-0.09326172,0.004882813,0.1953125
1170,0.75,1.8125,-9.25,0.06298828,-0.6181641,0.796875,-0.09326172,0.002441406,0.1953125
1172,0.6875,2,-9.75,0.05908203,-0.6298828,0.8046875,-0.09423828,0.002441406,0.1967773
1173,0.875,2.875,-10.125,0.05908203,-0.6298828,0.8085938,-0.09570313,0.002441406,0.1938477
1175,1.3125,3.4375,-10.5,0.05517578,-0.6337891,0.8125,-0.09423828,0.002441406,0.1953125
1176,2.125,4.5625,-10.8125,0.05517578,-0.6376953,0.8046875,-0.09423828,0.0009765625,0.1938477
1178,3.1875,5.125,-10.8125,0.06298828,-0.6376953,0.8125,-0.09570313,0.002441406,0.1923828
1179,1.625,4.875,-10.75,0.05908203,-0.6416016,0.8046875,-0.09423828,0.002441406,0.1953125
1181,-0.6875,3.875,-9.9375,0.06298828,-0.6376953,0.8203125,-0.09326172,0,0.1953125
1182,-0.5625,3.9375,-10,0.05908203,-0.6416016,0.8164063,-0.09667969,0,0.1938477
1184,0.6875,4.625,-10.1875,0.05517578,-0.6455078,0.8242188,-0.09570313,0,0.1938477
1185,1.625,5.625,-9.9375,0.05908203,-0.6455078,0.8164063,-0.09570313,0.002441406,0.1938477
1187,1.4375,5.375,-9.25,0.05908203,-0.6455078,0.8125,-0.09570313,0,0.1938477
1188,1.4375,5.6875,-8.5625,0.05517578,-0.6455078,0.8125,-0.09423828,0,0.1953125
1190,1.4375,5,-8.0625,0.04736328,-0.6455078,0.8164063,-0.09423828,0,0.1923828
1191,1.625,5.125,-7.8125,0.03955078,-0.6416016,0.8203125,-0.09570313,-0.0009765625,0.1923828
1193,1.375,4.625,-7.625,0.04345703,-0.6376953,0.8125,-0.09423828,-0.0009765625,0.1938477
1194,1.5,5.3125,-7.6875,0.04345703,-0.6416016,0.8085938,-0.09423828,-0.0009765625,0.1953125
1196,1.25,4.6875,-7.4375,0.04345703,-0.6416016,0.8007813,-0.09326172,-0.0009765625,0.1953125
1197,1.75,4.25,-7.75,0.03564453,-0.6376953,0.796875,-0.09423828,-0.0009765625,0.1923828
1199,2.5,3.375,-7.3125,0.03564453,-0.6572266,0.8007813,-0.09423828,-0.0009765625,0.1923828
1200,3.4375,3.9375,-6.125,0.03955078,-0.6689453,0.7929688,-0.09570313,-0.0009765625,0.190918
1202,3.9375,3.625,-4.875,0.03564453,-0.6572266,0.784668,-0.09423828,-0.001953125,0.1938477
1203,4.8125,4,-4.3125,0.03564453,-0.6494141,0.784668,-0.09570313,-0.001953125,0.190918
1205,5.625,3.875,-4.3125,0.03173828,-0.6376953,0.7807617,-0.09423828,-0.001953125,0.1923828
1206,6.4375,4.4375,-3.9375,0.03173828,-0.6337891,0.769043,-0.09570313,-0.003417969,0.1894531
1208,6.5,3.3125,-3.5,0.03955078,-0.6142578,0.7807617,-0.09570313,-0.001953125,0.1938477
1209,6.1875,3.375,-3.3125,0.04345703,-0.6103516,0.7651367,-0.09570313,-0.001953125,0.1923828
1211,6.1875,3.3125,-2.9375,0.03564453,-0.5986328,0.7768555,-0.09570313,-0.004394531,0.1938477
1212,6.1875,3.3125,-2.8125,0.03955078,-0.5830078,0.7729492,-0.09423828,-0.003417969,0.1923828
1214,5.6875,4,-2.625,0.04345703,-0.5751953,0.7651367,-0.09423828,-0.001953125,0.1923828
1215,4.9375,4.0625,-2.375,0.05517578,-0.5634766,0.7768555,-0.09326172,-0.003417969,0.190918
1217,3.5625,3.9375,-1.9375,0.05126953,-0.5478516,0.7612305,-0.09423828,-0.004394531,0.190918
1220,2.625,2.25,-1.4375,0.05517578,-0.5595703,0.7729492,-0.09423828,-0.003417969,0.1894531
1222,1.75,2.1875,-0.8125,0.03955078,-0.5751953,0.7729492,-0.09326172,-0.001953125,0.190918
1223,1.0625,2,-0.0625,0.04345703,-0.5673828,0.7885742,-0.09423828,-0.001953125,0.190918
1225,0.25,2.375,0,0.05517578,-0.5673828,0.7768555,-0.09423828,-0.004394531,0.1923828
1226,-0.6875,2.6875,-1.125,0.06689453,-0.5556641,0.784668,-0.09423828,-0.003417969,0.190918
1228,-1.5,3.625,-1.5,0.07080078,-0.5517578,0.7807617,-0.09423828,-0.003417969,0.1923828
1229,-2.5625,3.5625,-2.5625,0.07080078,-0.5556641,0.7929688,-0.09570313,-0.003417969,0.1923828
1231,-2.875,2.9375,-3.0625,0.07080078,-0.5791016,0.7885742,-0.09423828,-0.004394531,0.1894531
1232,-3.125,2.75,-2.1875,0.05517578,-0.6142578,0.8046875,-0.09570313,-0.004394531,0.1894531
1234,-3.375,2.5,-0.5,0.06689453,-0.6259766,0.8125,-0.09423828,-0.004394531,0.1894531
1235,-4.125,2.8125,0.5,0.07470703,-0.6142578,0.8085938,-0.09326172,-0.003417969,0.190918
1237,-5.125,2.9375,0.5625,0.08642578,-0.6025391,0.8164063,-0.09326172,-0.001953125,0.1894531
1238,-6.1875,3.4375,-0.6875,0.08251953,-0.6064453,0.8242188,-0.09326172,-0.003417969,0.190918
1240,-7.25,3.5625,-1.8125,0.07861328,-0.6064453,0.828125,-0.09326172,-0.004394531,0.1923828
1241,-7.8125,4,-2.875,0.08251953,-0.6220703,0.8242188,-0.09228516,-0.003417969,0.1923828
1243,-4.875,4.1875,-4.25,0.06298828,-0.6533203,0.828125,-0.09423828,-0.001953125,0.1923828
1244,-2.25,3.5,-4.5625,0.05517578,-0.6806641,0.8164063,-0.09326172,-0.004394531,0.190918
1246,-2.125,2,-3.8125,0.04736328,-0.7080078,0.8203125,-0.09423828,-0.001953125,0.1894531
1247,-2.875,0.875,-2.875,0.06298828,-0.7236328,0.828125,-0.09423828,-0.004394531,0.190918
1249,-1.5,0.8125,-2.3125,0.06689453,-0.7001953,0.8203125,-0.09423828,-0.001953125,0.190918
1250,1.1875,2.75,-3.4375,0.07861328,-0.6728516,0.828125,-0.09423828,-0.004394531,0.1923828
1252,1.625,3.375,-5.125,0.09033203,-0.6455078,0.8203125,-0.09326172,-0.004394531,0.190918
1253,2.5625,4.1875,-6.0625,0.09033203,-0.6298828,0.8203125,-0.09228516,-0.003417969,0.190918
1255,2.75,4,-6.0625,0.08251953,-0.6220703,0.828125,-0.09326172,-0.005859375,0.190918
1256,2.5,3.875,-5.25,0.07470703,-0.6064453,0.8242188,-0.09326172,-0.004394531,0.190918
1258,1.25,3.1875,-4.9375,0.06689453,-0.5908203,0.828125,-0.09423828,-0.005859375,0.190918
1259,1.6875,4.0625,-5.625,0.06298828,-0.5986328,0.8320313,-0.09326172,-0.004394531,0.1923828
1261,2.0625,5.6875,-6.25,0.06689453,-0.6064453,0.8242188,-0.09570313,-0.003417969,0.1894531
1262,1.1875,8.8125,-7.125,0.05517578,-0.6025391,0.8164063,-0.09228516,-0.005859375,0.1879883
1264,-4.625,13.1875,-6.8125,0.04345703,-0.6142578,0.7929688,-0.09326172,-0.004394531,0.190918
1265,-14.375,20.375,-4.625,0.02783203,-0.6337891,0.7929688,-0.09326172,-0.004394531,0.1879883
1267,-27.3125,26.625,3.125,-0.002441406,-0.6298828,0.769043,-0.09326172,-0.004394531,0.1879883
1269,-31.875,27.0625,6.625,0.05517578,-0.6259766,0.828125,-0.09326172,-0.004394531,0.1894531
1271,-28.75,29.1875,10.5,0.05126953,-0.6142578,0.8320313,-0.09228516,-0.001953125,0.1894531
1272,-28.9375,24.375,12,0.05517578,-0.6064453,0.8046875,-0.09228516,-0.001953125,0.1879883
1274,-25.875,20.625,13.25,0.04736328,-0.6220703,0.8203125,-0.09082031,-0.003417969,0.1879883
1275,-21.875,17.5,11.8125,0.05517578,-0.6298828,0.8242188,-0.09082031,-0.0009765625,0.1879883
1277,-19.0625,15.875,10.3125,0.03955078,-0.6259766,0.7885742,-0.08984375,0,0.1894531
1278,-14.8125,14.625,7.375,0.04345703,-0.6376953,0.7807617,-0.08984375,0.0009765625,0.1879883
1280,-10.25,12.875,5.1875,0.03955078,-0.6298828,0.784668,-0.08740234,0.0009765625,0.1894531
1281,-4.4375,11,3.5,0.04736328,-0.6416016,0.7807617,-0.08837891,0.002441406,0.1879883
1283,-1.125,8.3125,2.375,0.04345703,-0.6416016,0.7807617,-0.08837891,0.0009765625,0.1865234
1284,-0.3125,6.375,2.5625,0.03955078,-0.6533203,0.7651367,-0.08496094,-0.001953125,0.1879883
1286,-0.3125,4.0625,2.875,0.03173828,-0.6533203,0.7651367,-0.08740234,0.0009765625,0.1865234
1287,1.875,3.1875,3,0.02783203,-0.6572266,0.7612305,-0.08837891,0,0.1879883
1289,2.75,1.25,4.25,0.02441406,-0.6376953,0.7573242,-0.0859375,0.0009765625,0.1865234
1290,1.875,1.5625,4.75,0.0009765625,-0.6416016,0.7651367,-0.08740234,0.0009765625,0.1879883
1292,1.125,3,4.5,-0.002441406,-0.6494141,0.7495117,-0.08740234,0.0009765625,0.1879883
1293,0.4375,7,3.375,-0.01416016,-0.6494141,0.769043,-0.08740234,0,0.1850586
1295,-2,8.625,2.375,-0.006347656,-0.6455078,0.7573242,-0.0859375,0.0009765625,0.1879883
1296,-6.0625,9.5,3.0625,-0.01025391,-0.6337891,0.7612305,-0.0859375,0.0009765625,0.1879883
1298,-6.25,8.1875,3.25,-0.002441406,-0.6220703,0.7885742,-0.08398438,0.0009765625,0.1865234
1299,-5.125,7.1875,2.5625,-0.002441406,-0.6064453,0.7929688,-0.08740234,0.0009765625,0.1865234
1301,-5.1875,5.0625,2.0625,-0.002441406,-0.6025391,0.796875,-0.0859375,0.0009765625,0.1865234
1302,-5,3.25,1.625,-0.002441406,-0.5947266,0.7885742,-0.08496094,0.0009765625,0.1850586
1304,-5.25,1.375,0.8125,-0.002441406,-0.5908203,0.796875,-0.08398438,0.0009765625,0.1865234
1305,-4.4375,0.3125,-0.375,0.004882813,-0.5830078,0.8007813,-0.08496094,0.003417969,0.1850586
1307,-4.3125,-1,-1.5,0.0009765625,-0.5986328,0.8007813,-0.08740234,0.002441406,0.1865234
1308,-3.875,-1.25,-1.5,0.0009765625,-0.6103516,0.8007813,-0.08398438,0.002441406,0.1865234
1310,-3.625,-2.0625,-0.8125,0.01269531,-0.6142578,0.7929688,-0.08740234,0.0009765625,0.1879883
1311,-3.5625,-1.875,0.375,0.01269531,-0.6181641,0.7807617,-0.08496094,0.002441406,0.1879883
1313,-4.4375,-2.25,1,0.008789063,-0.6142578,0.796875,-0.08496094,0.003417969,0.1865234
1314,-5.1875,-1.75,1.5,0.0009765625,-0.6181641,0.7929688,-0.0859375,0.002441406,0.1879883
1316,-5.25,-2.0625,1.3125,-0.006347656,-0.6220703,0.7885742,-0.0859375,0.0009765625,0.1894531
1319,-4.9375,-1.25,1.0625,-0.01025391,-0.6337891,0.7929688,-0.0859375,0.002441406,0.1879883
1321,-5.125,-1.3125,0.3125,-0.006347656,-0.6416016,0.7929688,-0.0859375,0.003417969,0.1879883
1322,-4.5,0.375,-0.4375,-0.01806641,-0.6533203,0.7929688,-0.08740234,0.003417969,0.1865234
1324,-4.4375,1.125,-2.125,-0.01025391,-0.6611328,0.7885742,-0.08837891,0.002441406,0.1865234
1325,-3.375,2.25,-2.875,-0.01416016,-0.6650391,0.7929688,-0.0859375,0.002441406,0.1865234
1327,-2.75,1.8125,-2.375,0.0009765625,-0.6728516,0.7885742,-0.0859375,0.002441406,0.1879883
1328,-2.5625,1.625,-1.1875,0.01269531,-0.6650391,0.7929688,-0.08496094,0.003417969,0.1894531
1330,-3.0625,1.625,0,0.008789063,-0.6650391,0.7768555,-0.08496094,0.003417969,0.1879883
1331,-2.875,1.375,0.5,0.004882813,-0.6533203,0.784668,-0.0859375,0.003417969,0.1879883
1333,-2.375,1.3125,1.125,0.01269531,-0.6650391,0.784668,-0.08496094,0.003417969,0.1879883
1334,-1.9375,1.625,1.5,0.004882813,-0.6533203,0.7807617,-0.0859375,0.002441406,0.1879883
1336,-2.4375,1.125,1.3125,0.008789063,-0.6455078,0.784668,-0.08496094,0.004882813,0.1865234
1337,-2.25,1.375,0.8125,0.004882813,-0.6259766,0.7929688,-0.08496094,0.003417969,0.1894531
1339,-2.1875,0.4375,0.125,0.008789063,-0.6376953,0.7885742,-0.0859375,0.002441406,0.1879883
1340,-1.875,0.375,0,0.008789063,-0.6455078,0.7807617,-0.08496094,0.002441406,0.1879883
1342,-2.1875,-0.3125,-0.1875,0.004882813,-0.6455078,0.7807617,-0.0859375,0.002441406,0.1879883
1343,-1.875,-0.125,-0.375,0.0009765625,-0.6533203,0.7768555,-0.0859375,0.002441406,0.1879883
1345,-1.3125,-0.3125,-0.25,0.0009765625,-0.6533203,0.7768555,-0.08496094,0.003417969,0.1879883
1346,-0.75,-0.1875,0.1875,0.0009765625,-0.6650391,0.784668,-0.08496094,0.003417969,0.1865234
1348,-0.5,0,0.5,0.0009765625,-0.6533203,0.769043,-0.08837891,0.002441406,0.1879883
1349,-0.6875,-0.375,0.5625,0.0009765625,-0.6376953,0.7651367,-0.0859375,0.003417969,0.1894531
1351,-0.9375,-0.875,0.8125,0.0009765625,-0.6455078,0.769043,-0.08496094,0.002441406,0.1879883
1352,-1.1875,-0.8125,0.8125,0.008789063,-0.6416016,0.769043,-0.0859375,0.003417969,0.1879883
1354,-1.5625,-1.25,0.6875,0.008789063,-0.6416016,0.7573242,-0.08496094,0.003417969,0.1879883
1355,-1.8125,-0.875,0.75,0.01269531,-0.6376953,0.7651367,-0.0859375,0.003417969,0.1879883
1357,-2.0625,-1.0625,0.4375,0.008789063,-0.6376953,0.7612305,-0.0859375,0.003417969,0.1894531
1358,-1.75,-0.875,0.1875,0.0009765625,-0.6416016,0.7612305,-0.08496094,0.003417969,0.1894531
1360,-1.5,-1.4375,0.25,-0.002441406,-0.6494141,0.7573242,-0.08496094,0.003417969,0.1879883
1361,-1.0625,-1.1875,0.9375,0.0009765625,-0.6494141,0.7573242,-0.0859375,0.003417969,0.1894531
1363,-1.9375,-1.8125,1.4375,0.0009765625,-0.6455078,0.7612305,-0.08496094,0.003417969,0.1894531
1364,-2.0625,-1.4375,1.625,0.008789063,-0.6455078,0.769043,-0.08740234,0.005859375,0.1879883
1366,-2.3125,-1.8125,1.375,0.004882813,-0.6416016,0.7651367,-0.08496094,0.004882813,0.1894531
1368,-2.75,-1.0625,0.625,0.004882813,-0.6455078,0.7651367,-0.0859375,0.004882813,0.1894531
1370,-2.625,-1.0625,-0.4375,0.0009765625,-0.6572266,0.769043,-0.08496094,0.003417969,0.1894531
1371,-1.9375,-0.1875,-1.125,-0.006347656,-0.6728516,0.7729492,-0.0859375,0.004882813,0.1894531
1373,-1.6875,-0.375,-0.875,0.0009765625,-0.6689453,0.7612305,-0.08496094,0.003417969,0.1894531
1374,-1.0625,0,-0.5625,0.004882813,-0.6728516,0.7729492,-0.08496094,0.005859375,0.1894531
1376,-1.0625,0.1875,-0.125,0.01269531,-0.6650391,0.769043,-0.0859375,0.002441406,0.190918
1377,-1.4375,0.25,-0.0625,0.01269531,-0.6494141,0.7729492,-0.0859375,0.004882813,0.1894531
1379,-1.1875,0,-0.6875,0.004882813,-0.6572266,0.7807617,-0.08496094,0.004882813,0.1894531
1380,-0.4375,0,-0.75,0.0009765625,-0.6650391,0.7651367,-0.0859375,0.005859375,0.1879883
1382,-0.5625,0,-0.3125,-0.006347656,-0.6689453,0.7729492,-0.08740234,0.003417969,0.1879883
1383,0.0625,0,0,0.0009765625,-0.6611328,0.7768555,-0.0859375,0.004882813,0.1879883
1385,-0.5625,-0.5,0.375,0.008789063,-0.6416016,0.7807617,-0.08740234,0.003417969,0.1894531
1386,-1.1875,-0.0625,0.375,0.008789063,-0.6259766,0.7807617,-0.0859375,0.005859375,0.1894531
1388,-2.6875,-0.4375,-0.125,0.008789063,-0.6181641,0.784668,-0.0859375,0.004882813,0.1894531
1389,-2.9375,-0.5,-0.8125,0.004882813,-0.6298828,0.7807617,-0.08496094,0.003417969,0.1865234
1391,-2.75,-1.625,-1.375,-0.002441406,-0.6494141,0.7729492,-0.08398438,0.004882813,0.190918
1392,-2.375,-1.4375,-1.5,-0.006347656,-0.6767578,0.7807617,-0.0859375,0.004882813,0.1894531
1394,-1.75,-1.3125,-0.9375,0.0009765625,-0.6884766,0.769043,-0.0859375,0.005859375,0.1894531
1395,-0.25,-0.5,-0.75,0.004882813,-0.6845703,0.769043,-0.08496094,0.004882813,0.190918
1397,0.3125,-0.1875,0,0.008789063,-0.6806641,0.7651367,-0.0859375,0.004882813,0.190918
1398,0.4375,0.125,0,0.008789063,-0.6650391,0.7729492,-0.0859375,0.002441406,0.1894531
1400,0.375,-0.3125,0.375,0.008789063,-0.6572266,0.7651367,-0.08398438,0.004882813,0.1879883
1401,0.4375,-0.1875,0.125,0.0009765625,-0.6455078,0.7651367,-0.0859375,0.004882813,0.1879883
1403,0,-0.5,0.0625,-0.002441406,-0.6494141,0.769043,-0.0859375,0.004882813,0.190918
1404,-0.0625,-0.125,-0.3125,0.004882813,-0.6416016,0.769043,-0.0859375,0.003417969,0.1894531
1406,-0.25,-0.5,-0.6875,-0.002441406,-0.6455078,0.7651367,-0.0859375,0.004882813,0.1894531
1407,-0.25,-0.9375,-0.375,-0.006347656,-0.6572266,0.7651367,-0.08496094,0.004882813,0.1894531
1409,-0.625,-0.875,0.0625,-0.01025391,-0.6611328,0.769043,-0.08740234,0.004882813,0.1879883
1410,-1,-0.875,0.375,0.0009765625,-0.6533203,0.7573242,-0.0859375,0.004882813,0.1894531
1412,-1.125,-0.5,-0.0625,0.0009765625,-0.6455078,0.769043,-0.0859375,0.004882813,0.190918
1413,-1.0625,0,-0.8125,0.01269531,-0.6376953,0.769043,-0.0859375,0.004882813,0.1879883
1415,-1.125,-0.0625,-1.25,0.008789063,-0.6416016,0.7612305,-0.08740234,0.005859375,0.1894531
1418,-1,0.0625,-0.6875,0.004882813,-0.6533203,0.7729492,-0.0859375,0.004882813,0.1894531
1420,-1.25,-0.5,0.1875,-0.002441406,-0.6533203,0.7612305,-0.08740234,0.004882813,0.1894531
1421,-1.5625,-0.4375,1.0625,-0.002441406,-0.6650391,0.7612305,-0.0859375,0.004882813,0.1894531
1423,-1.8125,-0.75,1.5,-0.01025391,-0.6572266,0.7729492,-0.0859375,0.005859375,0.190918
1424,-0.9375,-0.5625,1.25,-0.002441406,-0.6572266,0.7729492,-0.0859375,0.004882813,0.1894531
1426,-0.6875,-0.4375,0.75,-0.002441406,-0.6494141,0.7651367,-0.0859375,0.004882813,0.1894531
1427,-1.25,-0.4375,0.375,0.0009765625,-0.6416016,0.7651367,-0.08740234,0.007324219,0.1923828
1429,-1.4375,-0.0625,0,0.008789063,-0.6455078,0.769043,-0.08740234,0.004882813,0.1894531
1430,-1.6875,-0.3125,0.125,0.004882813,-0.6455078,0.769043,-0.0859375,0.004882813,0.1879883
1432,-2.25,-0.3125,0.8125,0.004882813,-0.6455078,0.7729492,-0.08740234,0.007324219,0.1879883
1433,-3.125,-0.625,1.125,0.0009765625,-0.6533203,0.7651367,-0.08837891,0.005859375,0.1894531
1435,-3.375,-0.6875,1.1875,0.0009765625,-0.6494141,0.7768555,-0.0859375,0.004882813,0.1894531
1436,-3.1875,-1.8125,0.8125,-0.002441406,-0.6572266,0.7768555,-0.08496094,0.004882813,0.190918
1438,-2.25,-2,0.3125,-0.002441406,-0.6689453,0.7729492,-0.08496094,0.004882813,0.190918
1439,-2.0625,-2.25,-0.125,-0.002441406,-0.6806641,0.7729492,-0.08398438,0.005859375,0.190918
1441,-1.125,-1.75,-0.4375,-0.006347656,-0.6767578,0.7651367,-0.08740234,0.005859375,0.1894531
1442,-0.5,-1.625,-0.625,0.008789063,-0.6728516,0.7651367,-0.0859375,0.005859375,0.190918
1444,-0.0625,-0.875,-0.75,0.008789063,-0.6650391,0.769043,-0.0859375,0.004882813,0.1894531
1445,0,-1.1875,-0.9375,0.008789063,-0.6728516,0.7768555,-0.08740234,0.005859375,0.1879883
1447,0.3125,-1.3125,-0.1875,0.008789063,-0.6728516,0.7651367,-0.0859375,0.005859375,0.1894531
1448,0.375,-1.25,0.5,0.01269531,-0.6689453,0.769043,-0.08740234,0.005859375,0.190918
1450,0.4375,-0.3125,0.9375,0.008789063,-0.6689453,0.7612305,-0.0859375,0.005859375,0.1894531
1451,0.5625,-0.4375,1,0.004882813,-0.6572266,0.769043,-0.0859375,0.005859375,0.190918
1453,0.4375,-0.25,0.9375,0.004882813,-0.6494141,0.7768555,-0.0859375,0.003417969,0.190918
1454,-0.4375,-0.8125,1.0625,0.0009765625,-0.6416016,0.7768555,-0.08740234,0.005859375,0.190918
1456,-0.6875,-1.375,0.1875,-0.006347656,-0.6494141,0.7807617,-0.08740234,0.005859375,0.190918
1457,-0.5625,-1.75,0.125,-0.006347656,-0.6611328,0.7807617,-0.0859375,0.005859375,0.1894531
1459,-0.375,-1.5,-0.0625,-0.006347656,-0.6689453,0.7768555,-0.08740234,0.005859375,0.1894531
1460,-0.5,-1.9375,-0.6875,0.0009765625,-0.6650391,0.7807617,-0.0859375,0.005859375,0.190918
1462,-0.125,-1.75,-0.9375,-0.002441406,-0.6650391,0.769043,-0.08837891,0.004882813,0.190918
1463,0.4375,-1.9375,-0.8125,0.004882813,-0.6611328,0.7729492,-0.0859375,0.005859375,0.1894531
1465,1.125,-1.75,-0.0625,0.0009765625,-0.6689453,0.7768555,-0.08740234,0.007324219,0.1894531
1467,0.875,-1.3125,0.75,-0.002441406,-0.6728516,0.7729492,-0.0859375,0.004882813,0.1923828
1469,0.75,-1.375,1,0.0009765625,-0.6611328,0.7612305,-0.0859375,0.005859375,0.1894531
1470,1.625,-1.4375,1.0625,-0.002441406,-0.6533203,0.7612305,-0.08740234,0.004882813,0.1894531
1472,0.4375,-2.1875,1.5,0.0009765625,-0.6416016,0.7573242,-0.08740234,0.003417969,0.1894531
1473,0,-2.125,1.3125,-0.002441406,-0.6337891,0.7651367,-0.08740234,0.004882813,0.1923828
1475,-0.25,-2.9375,1.3125,0.0009765625,-0.6337891,0.769043,-0.08740234,0.004882813,0.190918
1476,-0.5,-3.1875,1.3125,0.0009765625,-0.6376953,0.7651367,-0.08740234,0.004882813,0.190918
1478,-1.0625,-3.1875,1.5,0.008789063,-0.6376953,0.7573242,-0.08740234,0.005859375,0.1923828
1479,-1.375,-2.6875,1.0625,0.01660156,-0.6259766,0.7729492,-0.0859375,0.005859375,0.190918
1481,-1.9375,-2.3125,1.0625,0.004882813,-0.6337891,0.7651367,-0.08740234,0.005859375,0.190918
1482,-2.5,-1.875,0.75,0.004882813,-0.6376953,0.7651367,-0.08740234,0.007324219,0.190918
1484,-2.5625,-2.0625,1.125,0.004882813,-0.6494141,0.7729492,-0.08740234,0.004882813,0.1923828
1485,-2.75,-1.75,1.75,0.004882813,-0.6611328,0.7612305,-0.08837891,0.005859375,0.190918
1487,-3.625,-2.4375,1.6875,0.0009765625,-0.6572266,0.7651367,-0.0859375,0.007324219,0.190918
1488,-3.6875,-2.875,1.5,0.008789063,-0.6611328,0.7612305,-0.08740234,0.007324219,0.1894531
1490,-3.5625,-2.5,0.75,0.004882813,-0.6611328,0.769043,-0.08740234,0.005859375,0.1923828
1491,-3.125,-2.0625,-0.0625,0.01660156,-0.6650391,0.7729492,-0.08837891,0.008300781,0.190918
1493,-2.375,-1.75,-1.25,0.008789063,-0.6728516,0.7651367,-0.0859375,0.005859375,0.190918
1494,-1.6875,-1.25,-1.1875,0.01269531,-0.6884766,0.7573242,-0.08740234,0.007324219,0.190918
1496,-1.625,-1.3125,-0.625,0.01660156,-0.6884766,0.7612305,-0.08740234,0.007324219,0.1923828
1497,-1.3125,-0.8125,-0.25,0.02050781,-0.6806641,0.7612305,-0.08740234,0.008300781,0.1923828
1499,-1.0625,-0.6875,-0.1875,0.01660156,-0.6728516,0.7651367,-0.08740234,0.009765625,0.190918
1500,-1.375,-0.9375,-0.375,0.004882813,-0.6689453,0.7612305,-0.08837891,0.007324219,0.1923828
1502,-1,-0.875,-0.4375,0.0009765625,-0.6728516,0.769043,-0.08740234,0.005859375,0.1938477
1503,-0.8125,-1.6875,-0.375,-0.006347656,-0.6767578,0.7651367,-0.08740234,0.007324219,0.190918
1505,-0.625,-1.375,-0.5,0.0009765625,-0.6650391,0.7612305,-0.08837891,0.007324219,0.1923828
1506,-0.8125,-1.375,-1.625,0.008789063,-0.6533203,0.7651367,-0.08740234,0.007324219,0.1923828
1508,-0.4375,-0.375,-2.3125,0.01660156,-0.6416016,0.7651367,-0.08837891,0.007324219,0.1923828
1509,-0.25,0.375,-2.5625,0.02050781,-0.6416016,0.769043,-0.08837891,0.005859375,0.190918
1511,-1.8125,1,-2.1875,0.01660156,-0.6181641,0.7651367,-0.08740234,0.005859375,0.1923828
1512,-3.3125,0.1875,-2.3125,0.008789063,-0.6181641,0.769043,-0.0859375,0.007324219,0.1938477
1514,-2.6875,-0.4375,-2.5,0.004882813,-0.6455078,0.753418,-0.08837891,0.007324219,0.190918
1517,-2.8125,-1.125,-1.75,-0.01025391,-0.6728516,0.7573242,-0.08984375,0.007324219,0.190918
1519,-3,-0.75,-1,-0.002441406,-0.6806641,0.7573242,-0.08837891,0.008300781,0.1938477
1520,-2.9375,-0.8125,-1.625,0.004882813,-0.6611328,0.7573242,-0.08740234,0.007324219,0.1938477
1522,-2.3125,-0.5,-3.1875,0.0009765625,-0.6611328,0.7573242,-0.08740234,0.007324219,0.1923828
1523,-1.875,-0.0625,-4.5625,0.01269531,-0.6650391,0.7612305,-0.08740234,0.007324219,0.1923828
1525,-1.25,0,-4.4375,0.004882813,-0.6806641,0.7651367,-0.08837891,0.005859375,0.190918
1526,-1.25,-0.4375,-3.9375,0.008789063,-0.6845703,0.7573242,-0.08740234,0.007324219,0.190918
1528,-1.4375,-0.0625,-3,0.004882813,-0.6884766,0.753418,-0.08837891,0.008300781,0.190918
1529,-0.875,0.0625,-2.6875,0.008789063,-0.6845703,0.7573242,-0.08837891,0.007324219,0.190918
1531,-0.4375,0.125,-2.75,0.01269531,-0.6728516,0.7612305,-0.08740234,0.005859375,0.1938477
1532,-0.6875,-0.0625,-2.6875,0.008789063,-0.6689453,0.753418,-0.08837891,0.007324219,0.1938477
1534,-1,0.125,-3.0625,0.01269531,-0.6572266,0.769043,-0.08984375,0.007324219,0.1938477
1535,-1.375,0.0625,-3.8125,0.008789063,-0.6611328,0.7612305,-0.08837891,0.007324219,0.1938477
1537,-1.4375,-0.125,-4.5625,0.008789063,-0.6611328,0.7651367,-0.08984375,0.007324219,0.1938477
1538,-1.8125,-0.3125,-5.0625,0.01269531,-0.6533203,0.7612305,-0.08837891,0.005859375,0.1923828
1540,-1.75,0.0625,-5.5,0.008789063,-0.6689453,0.7573242,-0.08984375,0.007324219,0.1923828
1541,-1.8125,0,-6.0625,0.02050781,-0.6689453,0.753418,-0.08837891,0.007324219,0.1923828
1543,-1.5,0.625,-5.8125,0.02050781,-0.6650391,0.7573242,-0.08984375,0.005859375,0.190918
1544,-1.5,0.4375,-5.3125,0.02441406,-0.6689453,0.7456055,-0.08984375,0.005859375,0.1938477
1546,-1.875,1.0625,-4.6875,0.02441406,-0.6611328,0.7495117,-0.08837891,0.007324219,0.1938477
1547,-2.25,0.8125,-4.75,0.02050781,-0.6494141,0.7456055,-0.08984375,0.007324219,0.1938477
1549,-1.9375,1.9375,-4.9375,0.01660156,-0.6533203,0.7495117,-0.08740234,0.004882813,0.1938477
1550,-1.5625,2.5625,-5,0.01660156,-0.6533203,0.7495117,-0.08740234,0.005859375,0.1938477
1552,-1.8125,2.5625,-5.125,0.008789063,-0.6533203,0.7573242,-0.08837891,0.005859375,0.190918
1553,-1.875,2.5,-4.3125,0.01660156,-0.6572266,0.7416992,-0.08837891,0.005859375,0.190918
1555,-2.75,1.8125,-3.1875,0.008789063,-0.6572266,0.7456055,-0.08837891,0.004882813,0.1953125
1556,-3.5625,1.5,-2.5,0.02050781,-0.6455078,0.737793,-0.08984375,0.007324219,0.1923828
1558,-3.8125,1.0625,-2.1875,0.02441406,-0.6455078,0.737793,-0.08984375,0.005859375,0.1923828
1559,-3.375,1.125,-1.25,0.03173828,-0.6455078,0.7416992,-0.08984375,0.004882813,0.1938477
1561,-5.5625,-0.1875,0.0625,0.03564453,-0.6572266,0.7416992,-0.08984375,0.007324219,0.1938477
1562,-7.6875,-1.75,2.375,0.03955078,-0.6572266,0.7216797,-0.08837891,0.004882813,0.1923828
1564,-8.9375,-3.9375,5,0.03564453,-0.6572266,0.7333984,-0.08984375,0.007324219,0.1938477
1566,-9.4375,-4.5625,8,0.03173828,-0.6611328,0.737793,-0.08984375,0.007324219,0.1938477
1568,-9.875,-6.1875,11.5625,0.03564453,-0.6728516,0.737793,-0.08984375,0.008300781,0.1938477
1569,-11.6875,-7.3125,15.9375,0.02783203,-0.6845703,0.7177734,-0.08837891,0.007324219,0.1938477
1571,-15.9375,-10.625,22.9375,0.02783203,-0.6962891,0.7099609,-0.08837891,0.008300781,0.1953125
1572,-20.5625,-15.6875,31.75,0.03955078,-0.7197266,0.6982422,-0.08837891,0.008300781,0.1938477
1574,-25.1875,-19.5,41.625,0.03564453,-0.7275391,0.7177734,-0.08837891,0.01074219,0.1953125
1575,-35.9375,-22.375,53.625,0.03564453,-0.7470703,0.6625977,-0.08837891,0.01220703,0.1967773
1577,-66.25,-21.375,71.9375,-0.01806641,-0.7783203,0.6313477,-0.0859375,0.01464844,0.1982422
1578,-83.0625,-21.6875,81.9375,0.01269531,-0.7587891,0.6865234,-0.0859375,0.01855469,0.1982422
1580,-87.3125,-18.25,93.9375,-0.002441406,-0.7548828,0.6904297,-0.0859375,0.01855469,0.199707
1581,-87.9375,-18,99.9375,0.0009765625,-0.7470703,0.6865234,-0.08496094,0.02441406,0.2011719
1583,-86.75,-22.875,105.4375,0.004882813,-0.7822266,0.7060547,-0.08398438,0.02685547,0.2041016
1584,-92.625,-30.625,113.75,-0.01416016,-0.7861328,0.6665039,-0.08496094,0.02929688,0.2075195
1586,-99.0625,-34.8125,120.8125,-0.02197266,-0.7900391,0.6665039,-0.08154297,0.03662109,0.2104492
1587,-100.4375,-37.375,127.8125,-0.04931641,-0.8212891,0.6469727,-0.07910156,0.04052734,0.2133789
1589,-104.6875,-40.1875,133.625,-0.05712891,-0.7978516,0.6230469,-0.078125,0.04296875,0.2133789
1590,-110.8125,-41.4375,131.1875,-0.04931641,-0.7509766,0.6191406,-0.07568359,0.04882813,0.2192383
1592,-126,-45.875,120.25,-0.02197266,-0.7158203,0.6113281,-0.07568359,0.05126953,0.222168
1593,-137.125,-44.8125,108.5625,-0.02587891,-0.7392578,0.6430664,-0.07324219,0.05517578,0.2236328
1595,-132.1875,-41.25,99.625,-0.04541016,-0.7431641,0.6313477,-0.06982422,0.06103516,0.2294922
1596,-126.25,-36.25,89,-0.05712891,-0.7236328,0.6191406,-0.06982422,0.06347656,0.2338867
1598,-121.1875,-31.625,77.125,-0.06494141,-0.6845703,0.6230469,-0.06982422,0.06835938,0.2338867
1599,-118.1875,-23.3125,63.5,-0.05322266,-0.6962891,0.6113281,-0.06738281,0.07080078,0.2412109
1601,-114.3125,-15.4375,52.9375,-0.08398438,-0.7158203,0.5878906,-0.06591797,0.07324219,0.2412109
1602,-115.1875,-7.3125,46.5625,-0.1074219,-0.7275391,0.5483398,-0.06396484,0.07714844,0.2456055
1604,-121.3125,-1.1875,41.8125,-0.1152344,-0.7587891,0.5209961,-0.06494141,0.078125,0.25
1605,-129.375,5.8125,39.4375,-0.1191406,-0.7822266,0.5126953,-0.0625,0.07958984,0.2514648
1607,-137.5625,15.25,36.625,-0.1152344,-0.8017578,0.5366211,-0.0625,0.08203125,0.2514648
1608,-135.4375,23,34.8125,-0.1347656,-0.8442383,0.5087891,-0.06152344,0.08447266,0.2587891
1610,-129.75,26.0625,31.5625,-0.1191406,-0.840332,0.4697266,-0.05908203,0.08691406,0.2602539
1611,-132.375,27.75,31.1875,-0.1191406,-0.8637695,0.4106445,-0.05810547,0.08789063,0.2636719
1613,-134.9375,25.1875,31.1875,-0.09179688,-0.9067383,0.418457,-0.05810547,0.09033203,0.2680664
1616,-132.0625,23.25,33.75,-0.08056641,-0.918457,0.418457,-0.05566406,0.09277344,0.2709961
1618,-132.8125,24.0625,36.5,-0.07666016,-0.9145508,0.390625,-0.05419922,0.09423828,0.2724609
1619,-136.6875,24.5,39.875,-0.1074219,-0.8950195,0.3237305,-0.05322266,0.09667969,0.2783203
1621,-140.6875,23.4375,44.625,-0.1191406,-0.9418945,0.3237305,-0.05175781,0.09765625,0.28125
1622,-149.9375,28.5,49.875,-0.1269531,-0.9458008,0.3432617,-0.05078125,0.09912109,0.28125
1624,-158.5,27.875,50.4375,-0.1230469,-0.9692383,0.2841797,-0.04980469,0.1025391,0.2871094
1625,-151.625,19.625,50.375,-0.1582031,-0.9926758,0.1821289,-0.04736328,0.1040039,0.2900391
1627,-147.125,6.25,54.25,-0.1933594,-1.02002,0.08349609,-0.04589844,0.1040039,0.2958984
1628,-148,-11.375,58.5,-0.1816406,-1.066895,0.06347656,-0.04394531,0.1088867,0.300293
1630,-142.3125,-24.0625,62.0625,-0.1542969,-1.074707,0.1269531,-0.04248047,0.1098633,0.3032227
1631,-134.8125,-36.9375,59.1875,-0.1386719,-1.039551,0.1147461,-0.04248047,0.1113281,0.3061523
1633,-121.5,-40.25,57,-0.1191406,-1.055176,0.1777344,-0.0390625,0.1123047,0.3149414
1634,-97.3125,-36.625,49.4375,-0.09570313,-1.059082,0.2490234,-0.03808594,0.1137695,0.3164063
1636,-70,-32.3125,37.4375,-0.1113281,-1.055176,0.2841797,-0.0390625,0.1137695,0.3212891
1637,-46.875,-23.1875,27.875,-0.1347656,-1.066895,0.2724609,-0.03662109,0.1147461,0.3256836
1639,-29.125,-15.125,22.8125,-0.1542969,-1.074707,0.2172852,-0.03564453,0.1171875,0.3227539
1640,-14.8125,-12,18.625,-0.1425781,-1.062988,0.1860352,-0.03564453,0.1147461,0.3256836
1642,-8.6875,-11.1875,15.875,-0.1425781,-1.059082,0.1621094,-0.03417969,0.1162109,0.3271484
1643,-10.375,-14.3125,11.125,-0.1074219,-1.039551,0.1069336,-0.03564453,0.1171875,0.3271484
1645,-18.0625,-21.625,9.8125,-0.1347656,-1.066895,0.05566406,-0.03564453,0.1171875,0.3256836
1646,-31.125,-28.75,12.125,-0.1699219,-1.117676,0.07568359,-0.03320313,0.1171875,0.3271484
1648,-31.625,-33.3125,11.1875,-0.1582031,-1.105957,0.08740234,-0.03320313,0.1171875,0.3300781
1649,-24.625,-36.6875,2.8125,-0.1542969,-1.074707,0.09521484,-0.03320313,0.1171875,0.331543
1651,-20.25,-40.8125,-5.4375,-0.1621094,-1.078613,0.08740234,-0.03320313,0.1162109,0.331543
1652,-25.5625,-44.6875,-13.5625,-0.1582031,-1.074707,0.05175781,-0.03320313,0.1171875,0.3300781
1654,-38.4375,-51.6875,-17.5,-0.1582031,-1.102051,0.02441406,-0.03417969,0.1186523,0.3344727
1655,-47.25,-59.8125,-21.625,-0.1308594,-1.102051,0.01660156,-0.03564453,0.1171875,0.3359375
1657,-51.5625,-70.4375,-29.1875,-0.09570313,-1.08252,-0.006835938,-0.03564453,0.1171875,0.3388672
1658,-58.4375,-80.375,-38.875,-0.08789063,-1.08252,-0.02636719,-0.03417969,0.1171875,0.340332
1660,-57.25,-87.6875,-47.6875,-0.09570313,-1.094238,0.02050781,-0.03662109,0.1171875,0.3432617
1661,-53,-91.875,-54.6875,-0.08789063,-1.086426,0.02441406,-0.04003906,0.1162109,0.3476563
1663,-38.3125,-95.75,-60.375,-0.07666016,-1.086426,0.02441406,-0.04150391,0.1147461,0.3476563
1665,-16.75,-99.1875,-65.125,-0.06884766,-1.078613,0.02832031,-0.04248047,0.1137695,0.3520508
1667,-1.375,-102.125,-73.3125,0.02783203,-0.9887695,0.07958984,-0.04394531,0.1123047,0.3549805
1668,16.9375,-102.1875,-78.8125,-0.09570313,-1.035645,0.04785156,-0.04589844,0.1113281,0.3535156
1670,39.875,-104.9375,-77.5625,-0.1035156,-1.02002,0.06738281,-0.04833984,0.1113281,0.3549805
1671,52.5625,-101.5,-70.75,-0.1074219,-1.023926,0.09521484,-0.05078125,0.1098633,0.3564453
1673,60.3125,-99.9375,-61.9375,-0.09570313,-1.027832,0.07958984,-0.05322266,0.1098633,0.3564453
1674,68.9375,-101.25,-53.6875,-0.07275391,-1.031738,0.06347656,-0.05566406,0.1088867,0.359375
1676,70.8125,-100.875,-41.625,-0.04931641,-1.016113,0.09521484,-0.05419922,0.1074219,0.3564453
1677,65.875,-92.9375,-31.8125,-0.01416016,-1.008301,0.1821289,-0.05664063,0.1064453,0.3564453
1679,66,-78.3125,-24.375,-0.01025391,-0.996582,0.2490234,-0.05664063,0.1074219,0.3549805
1680,57.75,-64.8125,6,-0.08056641,-1.05127,0.2373047,-0.05810547,0.1064453,0.3579102
1682,-53.4375,-76.75,75.8125,0.004882813,-0.8212891,0.06347656,-0.05810547,0.1074219,0.3579102
1683,-2.9375,-62.1875,36.75,-0.01416016,-1.008301,0.3081055,-0.05419922,0.1088867,0.359375
1685,45.5,-43.0625,31.375,-0.1621094,-1.066895,0.3041992,-0.05419922,0.1088867,0.3608398
1686,31.9375,-24.125,48.3125,-0.2045898,-0.9926758,0.2172852,-0.05322266,0.1088867,0.359375
1688,21.75,-9.5,48.5,-0.2163086,-0.9262695,0.1899414,-0.05078125,0.1113281,0.3579102
1689,30.5,4.9375,39.4375,-0.2280273,-0.9692383,0.2529297,-0.04980469,0.1113281,0.3564453
1691,43.25,27.8125,35.6875,-0.2475586,-0.9887695,0.2802734,-0.04980469,0.1113281,0.3535156
1692,42.6875,45.625,36.9375,-0.2592773,-0.9614258,0.2924805,-0.04736328,0.1113281,0.3535156
1694,35.9375,65.8125,37.6875,-0.2084961,-0.9692383,0.3432617,-0.04736328,0.1113281,0.3505859
1695,29.9375,95.5625,38.625,-0.1503906,-0.9614258,0.3984375,-0.04589844,0.1123047,0.3491211
1697,22.5625,133.125,38.9375,-0.09960938,-0.9379883,0.4418945,-0.04248047,0.1137695,0.3461914
1698,14.1875,171.0625,39.5625,-0.08056641,-0.9223633,0.4418945,-0.04492188,0.1137695,0.3432617
1700,2.375,205.6875,40.1875,-0.04931641,-0.8911133,0.4106445,-0.04394531,0.1162109,0.340332
1701,-10.4375,231.3125,39.4375,-0.04150391,-0.8637695,0.3710938,-0.04003906,0.1147461,0.3388672
1703,-23.375,255.25,36.25,0.008789063,-0.8364258,0.3237305,-0.04003906,0.1162109,0.3374023
1704,-46.8125,274.75,41.25,-0.02978516,-0.918457,0.2763672,-0.04003906,0.1171875,0.3330078
1706,-62.6875,291.375,47.5625,-0.02197266,-0.8598633,0.2724609,-0.03662109,0.1162109,0.3271484
1707,-71.375,302.5,49.625,-0.03369141,-0.8442383,0.2685547,-0.03417969,0.1186523,0.3271484
1709,-75.5625,304.1875,50.4375,-0.06494141,-0.8364258,0.2490234,-0.03320313,0.1186523,0.3242188
1710,-73.6875,305.5,49.4375,-0.09570313,-0.8251953,0.2490234,-0.03076172,0.1196289,0.3227539
1712,-66.25,307.9375,46.125,-0.1191406,-0.8173828,0.2373047,-0.02587891,0.1196289,0.3212891
1715,-54.75,316.4375,41.6875,-0.1308594,-0.8212891,0.2329102,-0.02490234,0.1196289,0.3212891
1717,-35.375,328.625,34.6875,-0.1699219,-0.8442383,0.2329102,-0.02246094,0.1210938,0.3149414
1718,-1.9375,354.25,28.1875,-0.2045898,-0.8598633,0.2451172,-0.02001953,0.1220703,0.3134766
1720,35.25,382.6875,22.3125,-0.2202148,-0.8442383,0.1738281,-0.01757813,0.1220703,0.3105469
1721,64.875,405.125,15.625,-0.2202148,-0.8330078,0.06347656,-0.015625,0.1220703,0.3017578
1723,86.25,418.6875,7.875,-0.1967773,-0.8520508,0.0004882813,-0.01074219,0.1210938,0.2988281
1724,107.8125,429.875,0.5,-0.1816406,-0.8793945,-0.01855469,-0.01074219,0.1210938,0.2929688
1726,131.9375,432.8125,-4.125,-0.1660156,-0.9145508,-0.08935547,-0.005859375,0.1196289,0.28125
1727,146.75,423.3125,-11.6875,-0.1464844,-0.8793945,-0.1645508,-0.002441406,0.1186523,0.2739258
1729,151.5,398.375,-19.6875,-0.1269531,-0.9262695,-0.184082,0.0004882813,0.1162109,0.2680664
1730,148.25,366.5,-23.75,-0.1074219,-0.9887695,-0.1567383,0.008789063,0.1147461,0.2543945
1732,147.6875,326.125,-26.4375,-0.09960938,-1.004395,-0.1328125,0.008789063,0.1113281,0.2485352
1733,127.875,285.9375,-25.3125,-0.1113281,-1.02002,-0.1054688,0.01220703,0.1113281,0.2441406
1735,107.375,245.625,-21.125,-0.1113281,-1.008301,-0.03808594,0.01708984,0.1074219,0.2368164
1736,85.8125,209,-16.25,-0.1269531,-1.02002,0.004394531,0.01953125,0.1049805,0.2338867
1738,70.25,179.1875,-14.5625,-0.1269531,-0.9848633,0.08740234,0.02050781,0.1040039,0.2294922
1739,54.0625,153.8125,-10.5625,-0.1621094,-0.996582,0.1186523,0.02636719,0.1025391,0.2265625
1741,47.75,138.0625,-6.6875,-0.1621094,-0.996582,0.1660156,0.02783203,0.1015625,0.2250977
1742,48,125.4375,-3.5625,-0.1855469,-0.980957,0.1660156,0.02880859,0.1015625,0.222168
1744,47.5625,112.375,-2.125,-0.2045898,-0.980957,0.1660156,0.03369141,0.09912109,0.2192383
1745,42.875,100.125,-2.3125,-0.2475586,-1.008301,0.1225586,0.03369141,0.09765625,0.2207031
1747,47.1875,84.4375,-3.125,-0.2827148,-1.023926,0.08740234,0.03466797,0.09765625,0.2177734
1748,46.875,70.25,-6,-0.3134766,-1.027832,0.04003906,0.03613281,0.09667969,0.2148438
1750,44.9375,54,-8,-0.3408203,-1.027832,-0.01464844,0.03808594,0.09765625,0.2133789
1751,40.1875,41.9375,-8.4375,-0.3408203,-1.031738,-0.01464844,0.03808594,0.09667969,0.2119141
1753,33.4375,31.75,-10.0625,-0.3330078,-1.023926,-0.03417969,0.03808594,0.09667969,0.2104492
1754,20.1875,24.75,-14.0625,-0.3447266,-1.004395,-0.03808594,0.03955078,0.09423828,0.2089844
1756,3.3125,19.1875,-19.25,-0.3486328,-0.9418945,0.0004882813,0.03955078,0.09277344,0.2104492
1757,-9.6875,19.75,-23.125,-0.3291016,-0.8520508,0.06347656,0.04052734,0.09423828,0.2104492
1759,-10.25,22,-33.1875,-0.3134766,-0.8251953,0.07568359,0.03955078,0.09423828,0.2104492
1760,-14.875,23.8125,-40.6875,-0.2827148,-0.8291016,0.09521484,0.03955078,0.09521484,0.2089844
1762,-21.75,24.8125,-45.8125,-0.2749023,-0.8481445,0.09130859,0.03955078,0.09423828,0.2104492
1764,-30.9375,23.6875,-48.5,-0.2709961,-0.8442383,0.06347656,0.03808594,0.09423828,0.2119141
1766,-43.375,20.1875,-49.25,-0.2553711,-0.8442383,0.02050781,0.03808594,0.09423828,0.2119141
1767,-54.5625,16.125,-49.5,-0.2358398,-0.8442383,-0.01074219,0.03466797,0.09667969,0.2133789
1769,-66.875,9.9375,-48.1875,-0.2241211,-0.8598633,-0.06982422,0.03466797,0.09667969,0.2148438
1770,-78.0625,3.4375,-43.9375,-0.2358398,-0.8793945,-0.1328125,0.03466797,0.09667969,0.2148438
1772,-86.25,-6.75,-36,-0.2553711,-0.9106445,-0.1879883,0.03222656,0.09912109,0.2192383
1773,-90.1875,-17.25,-25.9375,-0.2788086,-0.9379883,-0.2470703,0.03222656,0.1015625,0.2207031
1775,-93.0625,-27.375,-14.4375,-0.3022461,-0.9614258,-0.2905273,0.03222656,0.1000977,0.2250977
1776,-89.0625,-37.1875,-0.75,-0.3291016,-0.996582,-0.3178711,0.03125,0.1025391,0.2280273
1778,-87,-47.8125,12.1875,-0.3759766,-0.9692383,-0.3930664,0.03222656,0.1025391,0.2280273
1779,-82.75,-57.1875,25.0625,-0.4223633,-1.043457,-0.3813477,0.02978516,0.1064453,0.230957
1781,-75.3125,-63.0625,40.5,-0.496582,-1.078613,-0.3969727,0.03125,0.1074219,0.2353516
1782,-66.4375,-67.3125,55.25,-0.5703125,-1.066895,-0.4047852,0.02978516,0.1074219,0.2397461
1784,-58.375,-68.875,64.625,-0.6367188,-1.035645,-0.3652344,0.03125,0.1088867,0.2382813
1785,-52.5,-68.4375,70.75,-0.6791992,-0.9926758,-0.3300781,0.03369141,0.1137695,0.2412109
1787,-47,-66.4375,71.5625,-0.7182617,-0.9418945,-0.2749023,0.03466797,0.1123047,0.2441406
1788,-40.6875,-64.75,69,-0.7416992,-0.9106445,-0.2509766,0.03613281,0.1113281,0.2441406
1790,-31.125,-65.3125,67.3125,-0.7685547,-0.9145508,-0.2236328,0.03808594,0.1137695,0.2470703
1791,-24.3125,-68.5,62.9375,-0.7529297,-0.9223633,-0.2075195,0.03808594,0.1147461,0.2485352
1793,-35.25,-67.625,72.8125,-0.7495117,-0.9536133,-0.2353516,0.03710938,0.1147461,0.2485352
1794,-54.375,-59.25,58.4375,-0.7104492,-0.8173828,-0.2587891,0.03955078,0.1147461,0.2514648
1796,-61.0625,-67.125,46.4375,-0.706543,-0.9848633,-0.1606445,0.04199219,0.1171875,0.2514648
1797,-56.875,-67.75,51.25,-0.7104492,-0.9614258,-0.1723633,0.04199219,0.1171875,0.2529297
1799,-56.6875,-69.0625,51.5625,-0.675293,-0.8833008,-0.1918945,0.04199219,0.1162109,0.2573242
1800,-56.4375,-70.4375,47.6875,-0.625,-0.8481445,-0.168457,0.04199219,0.1196289,0.2573242
1802,-55.0625,-71.75,43.8125,-0.5820313,-0.8481445,-0.140625,0.04296875,0.1196289,0.2587891
1803,-53.5625,-73.875,37.3125,-0.5703125,-0.8291016,-0.1289063,0.04394531,0.1210938,0.2587891
1805,-53.625,-75.5625,34.0625,-0.5742188,-0.8520508,-0.1367188,0.04296875,0.1210938,0.2617188
1806,-54.8125,-79.8125,33.875,-0.5820313,-0.8442383,-0.152832,0.04541016,0.1220703,0.2651367
1808,-57.75,-85.125,35.5625,-0.5664063,-0.840332,-0.1484375,0.04394531,0.1220703,0.2680664
1809,-62.0625,-90,36.375,-0.5546875,-0.8212891,-0.1445313,0.04394531,0.1235352,0.2709961
1811,-68.0625,-94.1875,35.8125,-0.5507813,-0.8095703,-0.140625,0.04394531,0.1235352,0.2724609
1814,-74.0625,-96.6875,33.6875,-0.5390625,-0.7978516,-0.1171875,0.04541016,0.1269531,0.2739258
1816,-77.3125,-98,32,-0.5239258,-0.7900391,-0.1132813,0.04541016,0.1259766,0.2768555
1817,-78.375,-101.125,30.875,-0.5083008,-0.7939453,-0.1210938,0.04541016,0.1259766,0.2797852
1819,-82.0625,-104.1875,28.75,-0.4926758,-0.7783203,-0.1289063,0.04785156,0.1269531,0.2827148
1820,-86.5625,-108.0625,25.875,-0.4731445,-0.7822266,-0.1328125,0.04541016,0.1269531,0.2841797
1822,-91.25,-110,22.25,-0.4575195,-0.7939453,-0.1567383,0.04882813,0.128418,0.2871094
1823,-99.1875,-111,18.6875,-0.4575195,-0.8056641,-0.1762695,0.04541016,0.1308594,0.2900391
1825,-107.1875,-111.5,15.1875,-0.4536133,-0.8173828,-0.1918945,0.04785156,0.1308594,0.2944336
1826,-112.5,-112.3125,12.875,-0.449707,-0.8134766,-0.1958008,0.04785156,0.1308594,0.2988281
1828,-113.4375,-113.75,11.4375,-0.4379883,-0.8291016,-0.2036133,0.04541016,0.1318359,0.3032227
1829,-112.25,-117.625,10.25,-0.4379883,-0.8364258,-0.1918945,0.04394531,0.1308594,0.3046875
1831,-108.25,-120.5,9.5625,-0.4418945,-0.8330078,-0.1958008,0.04394531,0.1318359,0.309082
1832,-104.5,-123.6875,9.125,-0.4458008,-0.8251953,-0.168457,0.04296875,0.1342773,0.3164063
1834,-101.875,-123.0625,8.5625,-0.449707,-0.8173828,-0.1606445,0.04394531,0.1342773,0.3164063
1835,-101.8125,-122.625,6.8125,-0.4458008,-0.8173828,-0.1801758,0.04296875,0.1342773,0.3193359
1837,-101.8125,-120.875,4.3125,-0.4536133,-0.8291016,-0.168457,0.04296875,0.1342773,0.3271484
1838,-102,-119,2.1875,-0.449707,-0.8251953,-0.1645508,0.04541016,0.1342773,0.3271484
1840,-102.75,-115.8125,0.125,-0.480957,-0.8442383,-0.1645508,0.04296875,0.1357422,0.3330078
1841,-100.3125,-112.8125,0.0625,-0.496582,-0.840332,-0.1645508,0.04394531,0.1357422,0.3374023
1843,-95.9375,-108.1875,-0.375,-0.5043945,-0.8364258,-0.1484375,0.04394531,0.1357422,0.3388672
1844,-93,-104.5625,-2.875,-0.5004883,-0.8251953,-0.1567383,0.04296875,0.137207,0.3432617
1846,-89.125,-100.5625,-4.75,-0.5161133,-0.8251953,-0.184082,0.04296875,0.1342773,0.3476563
1847,-86.75,-100.875,-5.75,-0.5161133,-0.8251953,-0.1879883,0.04296875,0.1357422,0.3491211
1849,-85.625,-97.3125,-6.5,-0.5161133,-0.8364258,-0.1918945,0.04394531,0.1357422,0.3520508
1850,-87.1875,-95.5625,-6.8125,-0.5273438,-0.8212891,-0.2275391,0.04296875,0.1357422,0.3564453
1852,-90.5625,-93.625,-6.375,-0.53125,-0.8212891,-0.2314453,0.04296875,0.1333008,0.359375
1853,-98,-92.5,-5.9375,-0.5273438,-0.8095703,-0.2670898,0.04394531,0.1342773,0.3608398
1855,-105.3125,-90.1875,-5.5625,-0.5390625,-0.7939453,-0.2749023,0.04296875,0.1333008,0.3666992
1856,-111.25,-88.9375,-5.5,-0.5585938,-0.7939453,-0.2866211,0.04296875,0.1333008,0.3696289
1858,-113.3125,-88.5625,-5.8125,-0.5546875,-0.7783203,-0.2788086,0.04296875,0.1357422,0.3710938
1859,-109.9375,-90.875,-8.125,-0.5625,-0.7822266,-0.3100586,0.04394531,0.1333008,0.3789063
1861,-103.0625,-95.5,-9.5625,-0.578125,-0.7744141,-0.3178711,0.04199219,0.1333008,0.3803711
1863,-93,-97.5,-10.75,-0.5742188,-0.7705078,-0.2905273,0.04394531,0.1333008,0.3833008
1865,-80.9375,-95.3125,-11.625,-0.5820313,-0.7587891,-0.2548828,0.04394531,0.1318359,0.3891602
1866,-69.25,-91.75,-13.375,-0.5820313,-0.7470703,-0.2392578,0.04296875,0.1318359,0.3920898
1868,-55.25,-85.6875,-14.3125,-0.5742188,-0.7392578,-0.2075195,0.04394531,0.1308594,0.3920898
1869,-46.375,-78.1875,-15.625,-0.578125,-0.7470703,-0.1918945,0.04394531,0.1308594,0.3964844
1871,-36.875,-69.5625,-15.5,-0.5703125,-0.7392578,-0.168457,0.04541016,0.1308594,0.3994141
1872,-29.4375,-62.0625,-15.9375,-0.5703125,-0.7314453,-0.152832,0.04394531,0.1293945,0.3994141
1874,-24.125,-55,-14.6875,-0.5664063,-0.7431641,-0.1328125,0.04394531,0.1318359,0.4008789
1875,-21.625,-50.3125,-14.0625,-0.5625,-0.7470703,-0.1171875,0.04296875,0.1293945,0.4008789
1877,-19.5625,-44.875,-14.1875,-0.5664063,-0.7509766,-0.1171875,0.04394531,0.1308594,0.4023438
1878,-18,-42.125,-14.125,-0.5703125,-0.7509766,-0.1210938,0.04394531,0.128418,0.4008789
1880,-15.9375,-40.125,-14.1875,-0.5742188,-0.7626953,-0.1328125,0.04394531,0.128418,0.4038086
1881,-14.75,-38.1875,-13.4375,-0.5820313,-0.7626953,-0.1328125,0.04541016,0.128418,0.4038086
1883,-13.9375,-34.6875,-13.0625,-0.578125,-0.7626953,-0.1210938,0.04199219,0.1269531,0.4038086
1884,-13.125,-29.9375,-13.25,-0.5742188,-0.7587891,-0.1171875,0.04199219,0.128418,0.4038086
1886,-11.875,-24.5,-13.375,-0.5859375,-0.7626953,-0.1328125,0.04199219,0.128418,0.4038086
1887,-11.8125,-19.5625,-12.25,-0.5898438,-0.7744141,-0.1367188,0.04199219,0.1269531,0.4038086
1889,-13.5,-13.625,-9.875,-0.5859375,-0.7744141,-0.152832,0.04394531,0.1269531,0.4052734
1890,-15.75,-8.25,-7.8125,-0.5703125,-0.7822266,-0.1567383,0.04199219,0.128418,0.4082031
1892,-17.125,-3.1875,-6.5625,-0.5507813,-0.7822266,-0.1484375,0.04199219,0.1269531,0.4052734
1893,-18.625,1.25,-5.5,-0.546875,-0.7822266,-0.1645508,0.04052734,0.1259766,0.4067383
1895,-20.0625,6.625,-5.5625,-0.5429688,-0.7822266,-0.1762695,0.04052734,0.128418,0.4082031
1896,-21.6875,11,-6.875,-0.5703125,-0.7783203,-0.199707,0.04199219,0.1269531,0.4082031
1898,-20.375,11,-7.5625,-0.6054688,-0.7900391,-0.2587891,0.04199219,0.1269531,0.4082031
1899,-18.5,8.25,-6.625,-0.6210938,-0.8017578,-0.2944336,0.04052734,0.1259766,0.4082031
1901,-17.875,5.625,-5.9375,-0.6210938,-0.7978516,-0.3022461,0.04052734,0.1269531,0.4111328
1902,-17.5,4,-5.4375,-0.6171875,-0.7978516,-0.3061523,0.04052734,0.1259766,0.4111328
1904,-16.125,3.6875,-6.125,-0.6132813,-0.7900391,-0.2905273,0.03955078,0.1269531,0.4125977
1905,-13.8125,3.375,-6.9375,-0.6132813,-0.7939453,-0.2866211,0.03808594,0.1245117,0.4125977
1907,-11.1875,3.4375,-7.875,-0.6210938,-0.7978516,-0.2944336,0.03955078,0.1259766,0.4125977
1908,-8,1.1875,-8.0625,-0.6289063,-0.7978516,-0.3178711,0.04052734,0.1259766,0.4140625
1910,-5.375,-1.875,-7.625,-0.6328125,-0.7978516,-0.3139648,0.03955078,0.1259766,0.4140625
1913,-5.125,-4.4375,-7.0625,-0.625,-0.7978516,-0.3022461,0.03710938,0.1259766,0.4140625
1915,-5.0625,-5.5625,-7.75,-0.6015625,-0.7939453,-0.2788086,0.03808594,0.1259766,0.4125977
1916,-4.25,-6,-9,-0.5859375,-0.7861328,-0.2587891,0.03955078,0.1259766,0.4140625
1918,-2.5,-6.0625,-10.9375,-0.5742188,-0.7861328,-0.2431641,0.03808594,0.1245117,0.4125977
1919,-1.5,-6.875,-12.0625,-0.5625,-0.7822266,-0.2353516,0.03808594,0.1259766,0.4140625
1921,-1.125,-7.0625,-13.5625,-0.5507813,-0.7783203,-0.2275391,0.03710938,0.1269531,0.4140625
1922,-0.75,-9.875,-14.1875,-0.546875,-0.7861328,-0.2431641,0.03710938,0.1235352,0.4125977
1924,-0.375,-12.8125,-14.5625,-0.5390625,-0.7978516,-0.2431641,0.03613281,0.1259766,0.4125977
1925,-2.1875,-15.5625,-14.1875,-0.5273438,-0.7939453,-0.2314453,0.03613281,0.1259766,0.4140625
1927,-4.75,-16.1875,-14.25,-0.5161133,-0.7861328,-0.2158203,0.03613281,0.1259766,0.4140625
1928,-5.875,-15.875,-14.75,-0.512207,-0.7978516,-0.1958008,0.03710938,0.1245117,0.4155273
1930,-6.25,-15.0625,-14.4375,-0.5200195,-0.7978516,-0.1958008,0.03466797,0.1245117,0.4155273
1931,-7.5,-13.4375,-14.875,-0.512207,-0.7978516,-0.199707,0.03466797,0.1245117,0.4140625
1933,-8.5625,-11.375,-15.5,-0.5390625,-0.8017578,-0.2353516,0.03466797,0.1245117,0.4155273
1934,-9.875,-12.5,-15.4375,-0.546875,-0.7939453,-0.2587891,0.03369141,0.1245117,0.4140625
1936,-10.75,-13.25,-15.5,-0.5507813,-0.7939453,-0.2827148,0.03369141,0.1235352,0.4155273
1937,-12.1875,-13.125,-15.5,-0.5351563,-0.8017578,-0.2788086,0.03369141,0.1210938,0.4169922
1939,-11.8125,-10.75,-15.375,-0.5273438,-0.7939453,-0.2827148,0.03222656,0.1235352,0.418457
1940,-10.1875,-9.375,-15.375,-0.5239258,-0.7939453,-0.2749023,0.03222656,0.1220703,0.4169922
1942,-8.1875,-6.625,-14.8125,-0.5239258,-0.7978516,-0.2709961,0.03222656,0.1235352,0.418457
1943,-7.1875,-6.0625,-14.1875,-0.53125,-0.7939453,-0.2905273,0.03125,0.1235352,0.418457
1945,-5.375,-6.375,-13.6875,-0.5161133,-0.7900391,-0.3022461,0.03222656,0.1235352,0.418457
1946,-6.4375,-7.875,-12.25,-0.512207,-0.7978516,-0.3061523,0.03125,0.1245117,0.4169922
1948,-7.8125,-7.9375,-11.25,-0.5004883,-0.7939453,-0.3022461,0.03125,0.1245117,0.4169922
1949,-8.125,-8.375,-10.8125,-0.5004883,-0.7900391,-0.2866211,0.02978516,0.1220703,0.418457
1951,-4.875,-8.3125,-12,-0.496582,-0.7822266,-0.2788086,0.02978516,0.1220703,0.4199219
1952,-1.3125,-9.6875,-13.0625,-0.5083008,-0.7861328,-0.2905273,0.03125,0.1220703,0.418457
1954,-0.3125,-9.875,-12,-0.5161133,-0.7861328,-0.2866211,0.02880859,0.1235352,0.4199219
1955,-1.4375,-9.375,-11.375,-0.5083008,-0.7861328,-0.2709961,0.02978516,0.1210938,0.4213867
1957,-1.5625,-9.3125,-11.1875,-0.5043945,-0.7978516,-0.2827148,0.02880859,0.1210938,0.418457
1958,-1.0625,-10.125,-10.8125,-0.5004883,-0.7978516,-0.2749023,0.02880859,0.1235352,0.4199219
1960,-1.3125,-10.4375,-11.1875,-0.4926758,-0.8017578,-0.2548828,0.02880859,0.1220703,0.4228516
1962,-1.625,-9.9375,-10.9375,-0.4926758,-0.8056641,-0.2548828,0.02783203,0.1235352,0.4199219
1964,-1.5625,-9.0625,-10.5,-0.5004883,-0.8134766,-0.2392578,0.02636719,0.1220703,0.418457
1965,-0.875,-8.9375,-10.0625,-0.5004883,-0.8134766,-0.2470703,0.02783203,0.1210938,0.4213867
1967,-0.875,-8.9375,-10.125,-0.496582,-0.8173828,-0.2509766,0.02783203,0.1210938,0.4213867
1968,-0.75,-9.8125,-10.125,-0.5083008,-0.8212891,-0.2470703,0.02880859,0.1220703,0.4213867
1970,0.375,-11,-9.3125,-0.5161133,-0.8212891,-0.2548828,0.02636719,0.1210938,0.4213867
1971,0.125,-11.8125,-8.8125,-0.512207,-0.8251953,-0.2431641,0.02783203,0.1220703,0.4213867
1973,-1.8125,-10.75,-7.8125,-0.496582,-0.8251953,-0.2275391,0.02539063,0.1210938,0.4199219
1974,-3,-10.125,-7,-0.4926758,-0.8291016,-0.2275391,0.02539063,0.1210938,0.4213867
1976,-3.1875,-9.125,-6.375,-0.4887695,-0.8291016,-0.2275391,0.02539063,0.1210938,0.4199219
1977,-3.5625,-9.1875,-6.8125,-0.4887695,-0.8212891,-0.2275391,0.02539063,0.1210938,0.4213867
1979,-3.8125,-9.3125,-7.125,-0.4926758,-0.8212891,-0.2275391,0.02539063,0.1210938,0.4213867
1980,-4.9375,-10.5625,-7.3125,-0.4926758,-0.8251953,-0.2353516,0.02539063,0.1210938,0.4213867
1982,-5.5,-11,-7.875,-0.496582,-0.8212891,-0.2392578,0.02539063,0.1220703,0.4228516
1983,-6.375,-11.3125,-8.25,-0.496582,-0.8212891,-0.2392578,0.02539063,0.1210938,0.4228516
1985,-6.875,-9.75,-8.125,-0.496582,-0.8291016,-0.2470703,0.02636719,0.1210938,0.4213867
1986,-7.5,-8,-7.375,-0.5004883,-0.8251953,-0.2470703,0.02392578,0.1210938,0.4213867
1988,-6.875,-6,-7.3125,-0.496582,-0.8251953,-0.2587891,0.02539063,0.1196289,0.4228516
1989,-5.75,-4.3125,-8.3125,-0.4848633,-0.8212891,-0.2626953,0.02539063,0.1196289,0.4257813
1991,-4.25,-2.4375,-8.875,-0.496582,-0.8173828,-0.2749023,0.02392578,0.1210938,0.4213867
1992,-3.25,-2.375,-8.5625,-0.5043945,-0.8212891,-0.2944336,0.02392578,0.1220703,0.4243164
1994,-2.5625,-3.0625,-8.3125,-0.5004883,-0.8173828,-0.3061523,0.02392578,0.1210938,0.4228516
1995,-2.9375,-4.125,-8.5,-0.4770508,-0.8173828,-0.3061523,0.02392578,0.1210938,0.4243164
1997,-2.9375,-3.875,-9.0625,-0.4692383,-0.8173828,-0.2983398,0.02294922,0.1196289,0.4243164
1998,-2.1875,-3.875,-8.8125,-0.4692383,-0.8251953,-0.2905273,0.02294922,0.1196289,0.4243164
2000,-0.9375,-3.5625,-7.875,-0.4614258,-0.8251953,-0.2827148,0.02050781,0.1210938,0.4228516
2001,-0.9375,-3.125,-7.375,-0.449707,-0.8212891,-0.2709961,0.02197266,0.1196289,0.4243164
2003,-1.1875,-2.375,-7.1875,-0.4614258,-0.8212891,-0.2709961,0.02197266,0.1196289,0.4257813
2004,-1.375,-3.3125,-7.3125,-0.465332,-0.8251953,-0.2866211,0.02197266,0.1210938,0.4243164
2006,-2.3125,-3.5625,-6.25,-0.465332,-0.8251953,-0.2905273,0.02197266,0.1196289,0.4257813
2007,-3,-3.1875,-6.5,-0.4575195,-0.8212891,-0.2749023,0.02197266,0.1196289,0.4257813
2009,-2.1875,-1.5625,-6.1875,-0.4575195,-0.8251953,-0.2749023,0.02050781,0.1196289,0.4257813
2012,-0.6875,-1.25,-6.1875,-0.4536133,-0.8212891,-0.2788086,0.02197266,0.1196289,0.4257813
2014,0.5,-0.9375,-6.875,-0.449707,-0.8212891,-0.2866211,0.02050781,0.1186523,0.4257813
2015,1.5,-1.6875,-6.6875,-0.4536133,-0.8251953,-0.2944336,0.02050781,0.1171875,0.4257813
2017,1.5,-1.9375,-6.125,-0.449707,-0.8251953,-0.2944336,0.02050781,0.1186523,0.4257813
2018,0.5625,-2.9375,-5.625,-0.4418945,-0.8251953,-0.3022461,0.01953125,0.1186523,0.4257813
2020,0.5625,-2.9375,-5.1875,-0.4379883,-0.8212891,-0.2983398,0.02050781,0.1186523,0.4243164
2021,-0.125,-3.75,-4.375,-0.434082,-0.8251953,-0.2905273,0.01953125,0.1186523,0.4257813
2023,-0.375,-3.0625,-3.625,-0.4301758,-0.8212891,-0.2709961,0.02050781,0.1196289,0.4272461
2024,-0.3125,-2.6875,-3.5,-0.4262695,-0.8251953,-0.2709961,0.01953125,0.1186523,0.4257813
2026,0.5,-1.875,-3.5,-0.4223633,-0.8251953,-0.2788086,0.02050781,0.1186523,0.4243164
2027,-0.125,-2.125,-3.8125,-0.4301758,-0.8251953,-0.2944336,0.01953125,0.1196289,0.4257813
2029,-2.4375,-1.9375,-4,-0.4418945,-0.8330078,-0.2944336,0.01953125,0.1210938,0.4243164
2030,-3.5,-2.75,-3.25,-0.4536133,-0.8212891,-0.2905273,0.01953125,0.1196289,0.4272461
2032,-2.25,-2.5625,-3.25,-0.449707,-0.8251953,-0.2905273,0.01953125,0.1186523,0.4257813
2033,-2.375,-1.5,-3,-0.4418945,-0.8291016,-0.2905273,0.01953125,0.1196289,0.4257813
2035,-2.375,-0.0625,-2.1875,-0.4458008,-0.8291016,-0.2827148,0.01953125,0.1186523,0.4243164
2036,-1.8125,0.25,-2.75,-0.4458008,-0.8291016,-0.2866211,0.01953125,0.1171875,0.4272461
2038,-1.5625,0.8125,-3,-0.449707,-0.8364258,-0.2905273,0.01953125,0.1186523,0.4257813
2039,-2,0.9375,-2.5625,-0.449707,-0.8364258,-0.2905273,0.01806641,0.1186523,0.4257813
2041,-2.125,1.375,-2.5,-0.4418945,-0.8330078,-0.2866211,0.01708984,0.1186523,0.4272461
2042,-0.9375,2.125,-2.125,-0.4458008,-0.840332,-0.2827148,0.01806641,0.1186523,0.4257813
2044,0,3,-2.375,-0.4536133,-0.8364258,-0.2866211,0.01806641,0.1186523,0.4272461
2045,-0.3125,3.9375,-1.8125,-0.4458008,-0.840332,-0.2827148,0.01806641,0.1196289,0.4243164
2047,-0.3125,4.125,-1.75,-0.4458008,-0.8442383,-0.2905273,0.01708984,0.1186523,0.4272461
2048,0,4.4375,-1.5625,-0.449707,-0.8481445,-0.2749023,0.01708984,0.1186523,0.4272461
